rt;stimulus;responses;key_press;test_part;blockNb;trialNb;condiEmoBlock;condiEmoTrial;condiRwd;posCritDist;distractor;posTarget;target;trial_type;trial_index;time_elapsed;internal_node_id;subject_id;date
999;999;999;999;firstFullscreen;999;999;999;999;999;999;999;999;999;fullscreen;0;2320;0.0-0.0;8651065;06/05/2020 14:25
113714.255;999;"[{""page"":0,""time"":12292.045000009239},{""page"":1,""time"":25965.339999995194},{""page"":2,""time"":14156.88";999;instr;999;999;999;999;999;999;999;999;999;instructions;1;116084;0.0-1.0;8651065;06/05/2020 14:25
999;fixation_cross;999;999;fixation;0;0;1;1;1;8;1;10;2;html-keyboard-response;2;117127;0.0-2.0;8651065;06/05/2020 14:25
999;imgJS/WMF_scramble_25.jpg,imgJS/WMF_scramble_23.jpg,imgJS/WMF_scramble_23.jpg,imgJS/WMF_scramble_16.jpg,imgJS/WMF_scramble_17.jpg,imgJS/WMF_scramble_19.jpg,imgJS/WMF_scramble_6.jpg,imgJS/WMF_scramble_9.jpg,imgJS/WMF_14.jpg,imgJS/WMF_scramble_14.jpg,i;999;999;rsvp_img_15;0;0;1;1;1;8;1;10;2;rsvp_flux;3;118182;0.0-3.0;8651065;06/05/2020 14:25
917.4649999477;"<div style=""font-size:20px;""><p> Avez-vous vu au moins une femme? </p><p> <strong> Oui [O] / Non [N] </strong></p> </div>";999;79;rsvpAnswFem;0;0;1;1;1;8;1;10;2;html-keyboard-response;4;119103;0.0-4.0;8651065;06/05/2020 14:25
999;999;999;999;fullscreenExp;999;999;999;999;999;999;999;999;999;fullscreen;5;119142;0.0-5.0;8651065;06/05/2020 14:25
999;fixation_cross;999;999;fixation;0;1;1;2;1;7;0;11;2;html-keyboard-response;6;120147;0.0-6.0;8651065;06/05/2020 14:25
999;imgJS/WFF_scramble_22.jpg,imgJS/WFF_scramble_12.jpg,imgJS/WFF_scramble_35.jpg,imgJS/WFF_scramble_3.jpg,imgJS/WFF_scramble_30.jpg,imgJS/WFF_scramble_17.jpg,imgJS/WFF_scramble_12.jpg,imgJS/WFF_11.jpg,imgJS/WFF_scramble_10.jpg,imgJS/WFF_scramble_19.jpg,;999;999;rsvp_img_15;0;1;1;2;1;7;0;11;2;rsvp_flux;7;121201;0.0-7.0;8651065;06/05/2020 14:25
792.91499999817;"<div style=""font-size:20px;""><p> Avez-vous vu au moins un homme? </p><p> <strong> Oui [O] / Non [N] </strong></p> </div>";999;78;rsvpAnswHom;0;1;1;2;1;7;0;11;2;html-keyboard-response;8;121997;0.0-8.0;8651065;06/05/2020 14:25
999;999;999;999;fullscreenExp;999;999;999;999;999;999;999;999;999;fullscreen;9;122036;0.0-9.0;8651065;06/05/2020 14:25
999;fixation_cross;999;999;fixation;0;2;1;1;1;4;1;8;3;html-keyboard-response;10;123040;0.0-10.0;8651065;06/05/2020 14:25
999;imgJS/WMF_scramble_23.jpg,imgJS/WMF_scramble_11.jpg,imgJS/WMF_scramble_4.jpg,imgJS/WMF_scramble_8.jpg,imgJS/WMF_22.jpg,imgJS/WMF_scramble_15.jpg,imgJS/WMF_scramble_28.jpg,imgJS/WMF_scramble_6.jpg,imgJS/WMN_67.jpg,imgJS/WMF_scramble_2.jpg,imgJS/WMF_sc;999;999;rsvp_img_15;0;2;1;1;1;4;1;8;3;rsvp_flux;11;124094;0.0-11.0;8651065;06/05/2020 14:25
1089.5149999997;"<div style=""font-size:20px;""><p> Avez-vous vu au moins une femme? </p><p> <strong> Oui [O] / Non [N] </strong></p> </div>";999;78;rsvpAnswFem;0;2;1;1;1;4;1;8;3;html-keyboard-response;12;125187;0.0-12.0;8651065;06/05/2020 14:25
999;999;999;999;fullscreenExp;999;999;999;999;999;999;999;999;999;fullscreen;13;125233;0.0-13.0;8651065;06/05/2020 14:25
999;fixation_cross;999;999;fixation;0;3;1;4;1;8;2;10;2;html-keyboard-response;14;126237;0.0-14.0;8651065;06/05/2020 14:25
999;imgJS/WFN_scramble_14.jpg,imgJS/WFN_scramble_28.jpg,imgJS/WFN_scramble_81.jpg,imgJS/WFN_scramble_20.jpg,imgJS/WFN_scramble_54.jpg,imgJS/WFN_scramble_78.jpg,imgJS/WFN_scramble_74.jpg,imgJS/WFN_scramble_62.jpg,imgJS/WFN_44.jpg,imgJS/WFN_scramble_86.jpg;999;999;rsvp_img_15;0;3;1;4;1;8;2;10;2;rsvp_flux;15;127291;0.0-15.0;8651065;06/05/2020 14:25
701.23500004411;"<div style=""font-size:20px;""><p> Avez-vous vu au moins un homme? </p><p> <strong> Oui [O] / Non [N] </strong></p> </div>";999;78;rsvpAnswHom;0;3;1;4;1;8;2;10;2;html-keyboard-response;16;127995;0.0-16.0;8651065;06/05/2020 14:25
999;999;999;999;fullscreenExp;999;999;999;999;999;999;999;999;999;fullscreen;17;128034;0.0-17.0;8651065;06/05/2020 14:25
999;fixation_cross;999;999;fixation;0;4;1;2;1;7;0;11;3;html-keyboard-response;18;129040;0.0-18.0;8651065;06/05/2020 14:25
999;imgJS/WFF_scramble_30.jpg,imgJS/WFF_scramble_6.jpg,imgJS/WFF_scramble_22.jpg,imgJS/WFF_scramble_11.jpg,imgJS/WFF_scramble_11.jpg,imgJS/WFF_scramble_10.jpg,imgJS/WFF_scramble_33.jpg,imgJS/WFF_10.jpg,imgJS/WFF_scramble_33.jpg,imgJS/WFF_scramble_32.jpg,;999;999;rsvp_img_15;0;4;1;2;1;7;0;11;3;rsvp_flux;19;130093;0.0-19.0;8651065;06/05/2020 14:25
952.09000003524;"<div style=""font-size:20px;""><p> Avez-vous vu au moins un homme? </p><p> <strong> Oui [O] / Non [N] </strong></p> </div>";999;79;rsvpAnswHom;0;4;1;2;1;7;0;11;3;html-keyboard-response;20;131048;0.0-20.0;8651065;06/05/2020 14:25
999;999;999;999;fullscreenExp;999;999;999;999;999;999;999;999;999;fullscreen;21;131087;0.0-21.0;8651065;06/05/2020 14:25
999;fixation_cross;999;999;fixation;0;5;1;3;1;8;1;10;0;html-keyboard-response;22;132091;0.0-22.0;8651065;06/05/2020 14:25
999;imgJS/WMF_scramble_22.jpg,imgJS/WMF_scramble_26.jpg,imgJS/WMF_scramble_9.jpg,imgJS/WMF_scramble_1.jpg,imgJS/WMF_scramble_11.jpg,imgJS/WMF_scramble_8.jpg,imgJS/WMF_scramble_27.jpg,imgJS/WMF_scramble_1.jpg,imgJS/WMF_4.jpg,imgJS/WMF_scramble_20.jpg,imgJ;999;999;rsvp_img_15;0;5;1;3;1;8;1;10;0;rsvp_flux;23;133145;0.0-23.0;8651065;06/05/2020 14:25
1809.2399999732;"<div style=""font-size:20px;""><p> Avez-vous vu au moins une femme? </p><p> <strong> Oui [O] / Non [N] </strong></p> </div>";999;79;rsvpAnswFem;0;5;1;3;1;8;1;10;0;html-keyboard-response;24;134958;0.0-24.0;8651065;06/05/2020 14:25
999;999;999;999;fullscreenExp;999;999;999;999;999;999;999;999;999;fullscreen;25;135003;0.0-25.0;8651065;06/05/2020 14:25
999;fixation_cross;999;999;fixation;1;0;2;5;2;6;3;10;1;html-keyboard-response;26;136008;0.0-26.0;8651065;06/05/2020 14:25
999;imgJS/WMN_scramble_4.jpg,imgJS/WMN_scramble_84.jpg,imgJS/WMN_scramble_41.jpg,imgJS/WMN_scramble_35.jpg,imgJS/WMN_scramble_54.jpg,imgJS/WMN_scramble_66.jpg,imgJS/WMN_7.jpg,imgJS/WMN_scramble_45.jpg,imgJS/WMN_scramble_90.jpg,imgJS/WMN_scramble_35.jpg,i;999;999;rsvp_img_15;1;0;2;5;2;6;3;10;1;rsvp_flux;27;137061;0.0-27.0;8651065;06/05/2020 14:25
1356.0649999417;"<div style=""font-size:20px;""><p> Avez-vous vu au moins une femme? </p><p> <strong> Oui [O] / Non [N] </strong></p> </div>";999;78;rsvpAnswFem;1;0;2;5;2;6;3;10;1;html-keyboard-response;28;138420;0.0-28.0;8651065;06/05/2020 14:25
999;999;999;999;fullscreenExp;999;999;999;999;999;999;999;999;999;fullscreen;29;138466;0.0-29.0;8651065;06/05/2020 14:25
999;fixation_cross;999;999;fixation;1;1;2;3;2;6;1;8;1;html-keyboard-response;30;139471;0.0-30.0;8651065;06/05/2020 14:25
999;imgJS/WMF_scramble_24.jpg,imgJS/WMF_scramble_27.jpg,imgJS/WMF_scramble_21.jpg,imgJS/WMF_scramble_27.jpg,imgJS/WMF_scramble_5.jpg,imgJS/WMF_scramble_24.jpg,imgJS/WMF_28.jpg,imgJS/WMF_scramble_8.jpg,imgJS/WMF_1.jpg,imgJS/WMF_scramble_13.jpg,imgJS/WMF_s;999;999;rsvp_img_15;1;1;2;3;2;6;1;8;1;rsvp_flux;31;140524;0.0-31.0;8651065;06/05/2020 14:25
1316.519999993;"<div style=""font-size:20px;""><p> Avez-vous vu au moins une femme? </p><p> <strong> Oui [O] / Non [N] </strong></p> </div>";999;78;rsvpAnswFem;1;1;2;3;2;6;1;8;1;html-keyboard-response;32;141843;0.0-32.0;8651065;06/05/2020 14:25
999;999;999;999;fullscreenExp;999;999;999;999;999;999;999;999;999;fullscreen;33;141885;0.0-33.0;8651065;06/05/2020 14:25
999;fixation_cross;999;999;fixation;1;2;2;4;2;5;0;9;1;html-keyboard-response;34;142890;0.0-34.0;8651065;06/05/2020 14:25
999;imgJS/WFF_scramble_27.jpg,imgJS/WFF_scramble_34.jpg,imgJS/WFF_scramble_33.jpg,imgJS/WFF_scramble_28.jpg,imgJS/WFF_scramble_31.jpg,imgJS/WFF_24.jpg,imgJS/WFF_scramble_5.jpg,imgJS/WFF_scramble_11.jpg,imgJS/WFF_scramble_30.jpg,imgJS/WMF_19.jpg,imgJS/WFF;999;999;rsvp_img_15;1;2;2;4;2;5;0;9;1;rsvp_flux;35;143945;0.0-35.0;8651065;06/05/2020 14:25
393.54000007734;"<div style=""font-size:20px;""><p> Avez-vous vu au moins un homme? </p><p> <strong> Oui [O] / Non [N] </strong></p> </div>";999;79;rsvpAnswHom;1;2;2;4;2;5;0;9;1;html-keyboard-response;36;144341;0.0-36.0;8651065;06/05/2020 14:25
999;999;999;999;fullscreenExp;999;999;999;999;999;999;999;999;999;fullscreen;37;144379;0.0-37.0;8651065;06/05/2020 14:25
999;fixation_cross;999;999;fixation;1;3;2;6;2;4;2;8;0;html-keyboard-response;38;145383;0.0-38.0;8651065;06/05/2020 14:25
999;imgJS/WFN_scramble_65.jpg,imgJS/WFN_scramble_16.jpg,imgJS/WFN_scramble_57.jpg,imgJS/WFN_scramble_70.jpg,imgJS/WFN_30.jpg,imgJS/WFN_scramble_7.jpg,imgJS/WFN_scramble_20.jpg,imgJS/WFN_scramble_20.jpg,imgJS/WFF_9.jpg,imgJS/WFN_scramble_11.jpg,imgJS/WFN_;999;999;rsvp_img_15;1;3;2;6;2;4;2;8;0;rsvp_flux;39;146438;0.0-39.0;8651065;06/05/2020 14:25
853.02000003867;"<div style=""font-size:20px;""><p> Avez-vous vu au moins un homme? </p><p> <strong> Oui [O] / Non [N] </strong></p> </div>";999;78;rsvpAnswHom;1;3;2;6;2;4;2;8;0;html-keyboard-response;40;147293;0.0-40.0;8651065;06/05/2020 14:25
999;999;999;999;fullscreenExp;999;999;999;999;999;999;999;999;999;fullscreen;41;147340;0.0-41.0;8651065;06/05/2020 14:25
999;fixation_cross;999;999;fixation;1;4;2;6;2;5;2;9;1;html-keyboard-response;42;148345;0.0-42.0;8651065;06/05/2020 14:25
999;imgJS/WFN_scramble_26.jpg,imgJS/WFN_scramble_13.jpg,imgJS/WFN_scramble_19.jpg,imgJS/WFN_scramble_59.jpg,imgJS/WFN_scramble_75.jpg,imgJS/WFN_7.jpg,imgJS/WFN_scramble_75.jpg,imgJS/WFN_scramble_26.jpg,imgJS/WFN_scramble_81.jpg,imgJS/WMF_6.jpg,imgJS/WFN_;999;999;rsvp_img_15;1;4;2;6;2;5;2;9;1;rsvp_flux;43;149398;0.0-43.0;8651065;06/05/2020 14:25
708.16999999806;"<div style=""font-size:20px;""><p> Avez-vous vu au moins un homme? </p><p> <strong> Oui [O] / Non [N] </strong></p> </div>";999;78;rsvpAnswHom;1;4;2;6;2;5;2;9;1;html-keyboard-response;44;150109;0.0-44.0;8651065;06/05/2020 14:25
999;999;999;999;fullscreenExp;999;999;999;999;999;999;999;999;999;fullscreen;45;150156;0.0-45.0;8651065;06/05/2020 14:25
999;fixation_cross;999;999;fixation;1;5;2;5;2;7;3;11;1;html-keyboard-response;46;151159;0.0-46.0;8651065;06/05/2020 14:25
999;imgJS/WMN_scramble_83.jpg,imgJS/WMN_scramble_35.jpg,imgJS/WMN_scramble_4.jpg,imgJS/WMN_scramble_84.jpg,imgJS/WMN_scramble_77.jpg,imgJS/WMN_scramble_68.jpg,imgJS/WMN_scramble_42.jpg,imgJS/WMN_66.jpg,imgJS/WMN_scramble_82.jpg,imgJS/WMN_scramble_67.jpg,;999;999;rsvp_img_15;1;5;2;5;2;7;3;11;1;rsvp_flux;47;152213;0.0-47.0;8651065;06/05/2020 14:25
851.03999997955;"<div style=""font-size:20px;""><p> Avez-vous vu au moins une femme? </p><p> <strong> Oui [O] / Non [N] </strong></p> </div>";999;78;rsvpAnswFem;1;5;2;5;2;7;3;11;1;html-keyboard-response;48;153066;0.0-48.0;8651065;06/05/2020 14:25
999;999;999;999;fullscreenExp;999;999;999;999;999;999;999;999;999;fullscreen;49;153105;0.0-49.0;8651065;06/05/2020 14:25
999;999;999;999;fullscreenExp;999;999;999;999;999;999;999;999;999;fullscreen;50;153144;0.0-50.0;8651065;06/05/2020 14:25
999;instructions/instructionsDiapo/Slide7.jpg;999;999;instr;999;999;999;999;999;999;999;999;999;image-keyboard-response;51;158365;0.0-51.0;8651065;06/05/2020 14:25
999;instructions/instructionsDiapo/Slide8.jpg;999;999;instrCondi;0;999;NULL;NULL;1;999;999;999;999;image-keyboard-response;52;167265;0.0-52.0;8651065;06/05/2020 14:25
999;fixation_cross;999;999;fixation;0;0;1;2;1;4;0;8;3;html-keyboard-response;53;168269;0.0-53.0;8651065;06/05/2020 14:25
999;imgJS/WFF_scramble_20.jpg,imgJS/WFF_scramble_35.jpg,imgJS/WFF_scramble_4.jpg,imgJS/WFF_scramble_26.jpg,imgJS/WFF_3.jpg,imgJS/WFF_scramble_16.jpg,imgJS/WFF_scramble_9.jpg,imgJS/WFF_scramble_18.jpg,imgJS/WMN_78.jpg,imgJS/WFF_scramble_30.jpg,imgJS/WFF_s;999;999;rsvp_img_15;0;0;1;2;1;4;0;8;3;rsvp_flux;54;169323;0.0-54.0;8651065;06/05/2020 14:25
910.12999997474;"<div style=""font-size:20px;""><p> Avez-vous vu au moins un homme? </p><p> <strong> Oui [O] / Non [N] </strong></p> </div>";999;79;rsvpAnswHom;0;0;1;2;1;4;0;8;3;html-keyboard-response;55;170235;0.0-55.0;8651065;06/05/2020 14:25
999;999;999;999;fullscreenExp;999;999;999;999;999;999;999;999;999;fullscreen;56;170278;0.0-56.0;8651065;06/05/2020 14:25
999;fixation_cross;999;999;fixation;0;1;1;3;1;4;1;8;1;html-keyboard-response;57;171282;0.0-57.0;8651065;06/05/2020 14:25
999;imgJS/WMF_scramble_10.jpg,imgJS/WMF_scramble_4.jpg,imgJS/WMF_scramble_27.jpg,imgJS/WMF_scramble_17.jpg,imgJS/WMF_2.jpg,imgJS/WMF_scramble_17.jpg,imgJS/WMF_scramble_11.jpg,imgJS/WMF_scramble_24.jpg,imgJS/WMF_29.jpg,imgJS/WMF_scramble_24.jpg,imgJS/WMF_;999;999;rsvp_img_15;0;1;1;3;1;4;1;8;1;rsvp_flux;58;172336;0.0-58.0;8651065;06/05/2020 14:25
662.5950000016;"<div style=""font-size:20px;""><p> Avez-vous vu au moins une femme? </p><p> <strong> Oui [O] / Non [N] </strong></p> </div>";999;78;rsvpAnswFem;0;1;1;3;1;4;1;8;1;html-keyboard-response;59;173002;0.0-59.0;8651065;06/05/2020 14:25
999;999;999;999;fullscreenExp;999;999;999;999;999;999;999;999;999;fullscreen;60;173044;0.0-60.0;8651065;06/05/2020 14:25
999;fixation_cross;999;999;fixation;0;2;1;1;1;7;1;9;3;html-keyboard-response;61;174048;0.0-61.0;8651065;06/05/2020 14:25
999;imgJS/WMF_scramble_20.jpg,imgJS/WMF_scramble_24.jpg,imgJS/WMF_scramble_3.jpg,imgJS/WMF_scramble_10.jpg,imgJS/WMF_scramble_7.jpg,imgJS/WMF_scramble_23.jpg,imgJS/WMF_scramble_19.jpg,imgJS/WMF_10.jpg,imgJS/WMF_scramble_20.jpg,imgJS/WMN_47.jpg,imgJS/WMF_;999;999;rsvp_img_15;0;2;1;1;1;7;1;9;3;rsvp_flux;62;175102;0.0-62.0;8651065;06/05/2020 14:25
1244.6950000012;"<div style=""font-size:20px;""><p> Avez-vous vu au moins une femme? </p><p> <strong> Oui [O] / Non [N] </strong></p> </div>";999;78;rsvpAnswFem;0;2;1;1;1;7;1;9;3;html-keyboard-response;63;176350;0.0-63.0;8651065;06/05/2020 14:25
999;999;999;999;fullscreenExp;999;999;999;999;999;999;999;999;999;fullscreen;64;176398;0.0-64.0;8651065;06/05/2020 14:25
999;fixation_cross;999;999;fixation;0;3;1;1;1;4;1;6;3;html-keyboard-response;65;177403;0.0-65.0;8651065;06/05/2020 14:25
999;imgJS/WMF_scramble_20.jpg,imgJS/WMF_scramble_11.jpg,imgJS/WMF_scramble_27.jpg,imgJS/WMF_scramble_9.jpg,imgJS/WMF_6.jpg,imgJS/WMF_scramble_17.jpg,imgJS/WMN_13.jpg,imgJS/WMF_scramble_25.jpg,imgJS/WMF_scramble_26.jpg,imgJS/WMF_scramble_26.jpg,imgJS/WMF_;999;999;rsvp_img_15;0;3;1;1;1;4;1;6;3;rsvp_flux;66;178457;0.0-66.0;8651065;06/05/2020 14:25
874.70000004396;"<div style=""font-size:20px;""><p> Avez-vous vu au moins une femme? </p><p> <strong> Oui [O] / Non [N] </strong></p> </div>";999;78;rsvpAnswFem;0;3;1;1;1;4;1;6;3;html-keyboard-response;67;179335;0.0-67.0;8651065;06/05/2020 14:25
999;999;999;999;fullscreenExp;999;999;999;999;999;999;999;999;999;fullscreen;68;179372;0.0-68.0;8651065;06/05/2020 14:25
999;fixation_cross;999;999;fixation;0;4;1;2;1;5;0;7;3;html-keyboard-response;69;180376;0.0-69.0;8651065;06/05/2020 14:25
999;imgJS/WFF_scramble_35.jpg,imgJS/WFF_scramble_22.jpg,imgJS/WFF_scramble_18.jpg,imgJS/WFF_scramble_36.jpg,imgJS/WFF_scramble_34.jpg,imgJS/WFF_9.jpg,imgJS/WFF_scramble_28.jpg,imgJS/WMN_80.jpg,imgJS/WFF_scramble_2.jpg,imgJS/WFF_scramble_24.jpg,imgJS/WFF_;999;999;rsvp_img_15;0;4;1;2;1;5;0;7;3;rsvp_flux;70;181430;0.0-70.0;8651065;06/05/2020 14:25
1146.7399999965;"<div style=""font-size:20px;""><p> Avez-vous vu au moins un homme? </p><p> <strong> Oui [O] / Non [N] </strong></p> </div>";999;79;rsvpAnswHom;0;4;1;2;1;5;0;7;3;html-keyboard-response;71;182579;0.0-71.0;8651065;06/05/2020 14:25
999;999;999;999;fullscreenExp;999;999;999;999;999;999;999;999;999;fullscreen;72;182622;0.0-72.0;8651065;06/05/2020 14:25
999;fixation_cross;999;999;fixation;0;5;1;4;1;4;2;8;2;html-keyboard-response;73;183626;0.0-73.0;8651065;06/05/2020 14:25
999;imgJS/WFN_scramble_14.jpg,imgJS/WFN_scramble_82.jpg,imgJS/WFN_scramble_72.jpg,imgJS/WFN_scramble_37.jpg,imgJS/WFN_49.jpg,imgJS/WFN_scramble_46.jpg,imgJS/WFN_scramble_22.jpg,imgJS/WFN_scramble_5.jpg,imgJS/WFN_41.jpg,imgJS/WFN_scramble_27.jpg,imgJS/WFN;999;999;rsvp_img_15;0;5;1;4;1;4;2;8;2;rsvp_flux;74;184681;0.0-74.0;8651065;06/05/2020 14:25
1435.524999979;"<div style=""font-size:20px;""><p> Avez-vous vu au moins un homme? </p><p> <strong> Oui [O] / Non [N] </strong></p> </div>";999;78;rsvpAnswHom;0;5;1;4;1;4;2;8;2;html-keyboard-response;75;186120;0.0-75.0;8651065;06/05/2020 14:25
999;999;999;999;fullscreenExp;999;999;999;999;999;999;999;999;999;fullscreen;76;186160;0.0-76.0;8651065;06/05/2020 14:25
999;fixation_cross;999;999;fixation;0;6;1;2;1;6;0;10;2;html-keyboard-response;77;187164;0.0-77.0;8651065;06/05/2020 14:25
999;imgJS/WFF_scramble_18.jpg,imgJS/WFF_scramble_33.jpg,imgJS/WFF_scramble_1.jpg,imgJS/WFF_scramble_7.jpg,imgJS/WFF_scramble_34.jpg,imgJS/WFF_scramble_17.jpg,imgJS/WFF_4.jpg,imgJS/WFF_scramble_31.jpg,imgJS/WFF_scramble_21.jpg,imgJS/WFF_scramble_32.jpg,im;999;999;rsvp_img_15;0;6;1;2;1;6;0;10;2;rsvp_flux;78;188218;0.0-78.0;8651065;06/05/2020 14:25
534.16499996092;"<div style=""font-size:20px;""><p> Avez-vous vu au moins un homme? </p><p> <strong> Oui [O] / Non [N] </strong></p> </div>";999;78;rsvpAnswHom;0;6;1;2;1;6;0;10;2;html-keyboard-response;79;188755;0.0-79.0;8651065;06/05/2020 14:25
999;999;999;999;fullscreenExp;999;999;999;999;999;999;999;999;999;fullscreen;80;188807;0.0-80.0;8651065;06/05/2020 14:25
999;fixation_cross;999;999;fixation;0;7;1;2;1;8;0;12;3;html-keyboard-response;81;189812;0.0-81.0;8651065;06/05/2020 14:25
999;imgJS/WFF_scramble_9.jpg,imgJS/WFF_scramble_1.jpg,imgJS/WFF_scramble_25.jpg,imgJS/WFF_scramble_8.jpg,imgJS/WFF_scramble_36.jpg,imgJS/WFF_scramble_19.jpg,imgJS/WFF_scramble_25.jpg,imgJS/WFF_scramble_1.jpg,imgJS/WFF_27.jpg,imgJS/WFF_scramble_3.jpg,imgJ;999;999;rsvp_img_15;0;7;1;2;1;8;0;12;3;rsvp_flux;82;190865;0.0-82.0;8651065;06/05/2020 14:25
691.09999993816;"<div style=""font-size:20px;""><p> Avez-vous vu au moins un homme? </p><p> <strong> Oui [O] / Non [N] </strong></p> </div>";999;79;rsvpAnswHom;0;7;1;2;1;8;0;12;3;html-keyboard-response;83;191560;0.0-83.0;8651065;06/05/2020 14:25
999;999;999;999;fullscreenExp;999;999;999;999;999;999;999;999;999;fullscreen;84;191604;0.0-84.0;8651065;06/05/2020 14:25
999;fixation_cross;999;999;fixation;0;8;1;3;1;7;3;9;2;html-keyboard-response;85;192609;0.0-85.0;8651065;06/05/2020 14:25
999;imgJS/WMN_scramble_70.jpg,imgJS/WMN_scramble_79.jpg,imgJS/WMN_scramble_60.jpg,imgJS/WMN_scramble_43.jpg,imgJS/WMN_scramble_91.jpg,imgJS/WMN_scramble_66.jpg,imgJS/WMN_scramble_85.jpg,imgJS/WMN_63.jpg,imgJS/WMN_scramble_44.jpg,imgJS/WFN_19.jpg,imgJS/WM;999;999;rsvp_img_15;0;8;1;3;1;7;3;9;2;rsvp_flux;86;193663;0.0-86.0;8651065;06/05/2020 14:25
880.05999999586;"<div style=""font-size:20px;""><p> Avez-vous vu au moins une femme? </p><p> <strong> Oui [O] / Non [N] </strong></p> </div>";999;78;rsvpAnswFem;0;8;1;3;1;7;3;9;2;html-keyboard-response;87;194546;0.0-87.0;8651065;06/05/2020 14:25
999;999;999;999;fullscreenExp;999;999;999;999;999;999;999;999;999;fullscreen;88;194587;0.0-88.0;8651065;06/05/2020 14:25
999;fixation_cross;999;999;fixation;0;9;1;4;1;4;0;6;0;html-keyboard-response;89;195591;0.0-89.0;8651065;06/05/2020 14:25
999;imgJS/WFF_scramble_36.jpg,imgJS/WFF_scramble_6.jpg,imgJS/WFF_scramble_34.jpg,imgJS/WFF_scramble_13.jpg,imgJS/WFF_10.jpg,imgJS/WFF_scramble_22.jpg,imgJS/WFF_26.jpg,imgJS/WFF_scramble_15.jpg,imgJS/WFF_scramble_9.jpg,imgJS/WFF_scramble_5.jpg,imgJS/WFF_s;999;999;rsvp_img_15;0;9;1;4;1;4;0;6;0;rsvp_flux;90;196645;0.0-90.0;8651065;06/05/2020 14:25
717.16999995988;"<div style=""font-size:20px;""><p> Avez-vous vu au moins un homme? </p><p> <strong> Oui [O] / Non [N] </strong></p> </div>";999;78;rsvpAnswHom;0;9;1;4;1;4;0;6;0;html-keyboard-response;91;197365;0.0-91.0;8651065;06/05/2020 14:25
999;999;999;999;fullscreenExp;999;999;999;999;999;999;999;999;999;fullscreen;92;197404;0.0-92.0;8651065;06/05/2020 14:25
999;fixation_cross;999;999;fixation;0;10;1;1;1;4;1;8;3;html-keyboard-response;93;198408;0.0-93.0;8651065;06/05/2020 14:25
999;imgJS/WMF_scramble_5.jpg,imgJS/WMF_scramble_25.jpg,imgJS/WMF_scramble_29.jpg,imgJS/WMF_scramble_16.jpg,imgJS/WMF_1.jpg,imgJS/WMF_scramble_19.jpg,imgJS/WMF_scramble_18.jpg,imgJS/WMF_scramble_27.jpg,imgJS/WMN_69.jpg,imgJS/WMF_scramble_3.jpg,imgJS/WMF_s;999;999;rsvp_img_15;0;10;1;1;1;4;1;8;3;rsvp_flux;94;199461;0.0-94.0;8651065;06/05/2020 14:25
580.23999992292;"<div style=""font-size:20px;""><p> Avez-vous vu au moins une femme? </p><p> <strong> Oui [O] / Non [N] </strong></p> </div>";999;78;rsvpAnswFem;0;10;1;1;1;4;1;8;3;html-keyboard-response;95;200044;0.0-95.0;8651065;06/05/2020 14:25
999;999;999;999;fullscreenExp;999;999;999;999;999;999;999;999;999;fullscreen;96;200084;0.0-96.0;8651065;06/05/2020 14:25
999;fixation_cross;999;999;fixation;0;11;1;4;1;6;0;10;1;html-keyboard-response;97;201090;0.0-97.0;8651065;06/05/2020 14:25
999;imgJS/WFF_scramble_17.jpg,imgJS/WFF_scramble_31.jpg,imgJS/WFF_scramble_14.jpg,imgJS/WFF_scramble_32.jpg,imgJS/WFF_scramble_10.jpg,imgJS/WFF_scramble_7.jpg,imgJS/WFF_7.jpg,imgJS/WFF_scramble_15.jpg,imgJS/WFF_scramble_27.jpg,imgJS/WFF_scramble_12.jpg,i;999;999;rsvp_img_15;0;11;1;4;1;6;0;10;1;rsvp_flux;98;202144;0.0-98.0;8651065;06/05/2020 14:25
672.43499995675;"<div style=""font-size:20px;""><p> Avez-vous vu au moins un homme? </p><p> <strong> Oui [O] / Non [N] </strong></p> </div>";999;79;rsvpAnswHom;0;11;1;4;1;6;0;10;1;html-keyboard-response;99;202819;0.0-99.0;8651065;06/05/2020 14:25
999;999;999;999;fullscreenExp;999;999;999;999;999;999;999;999;999;fullscreen;100;202859;0.0-100.0;8651065;06/05/2020 14:25
999;fixation_cross;999;999;fixation;0;12;1;1;1;6;1;8;3;html-keyboard-response;101;203864;0.0-101.0;8651065;06/05/2020 14:25
999;imgJS/WMF_scramble_21.jpg,imgJS/WMF_scramble_28.jpg,imgJS/WMF_scramble_18.jpg,imgJS/WMF_scramble_18.jpg,imgJS/WMF_scramble_8.jpg,imgJS/WMF_scramble_17.jpg,imgJS/WMF_8.jpg,imgJS/WMF_scramble_16.jpg,imgJS/WMN_20.jpg,imgJS/WMF_scramble_29.jpg,imgJS/WMF_;999;999;rsvp_img_15;0;12;1;1;1;6;1;8;3;rsvp_flux;102;204918;0.0-102.0;8651065;06/05/2020 14:25
597.88000001572;"<div style=""font-size:20px;""><p> Avez-vous vu au moins une femme? </p><p> <strong> Oui [O] / Non [N] </strong></p> </div>";999;78;rsvpAnswFem;0;12;1;1;1;6;1;8;3;html-keyboard-response;103;205519;0.0-103.0;8651065;06/05/2020 14:25
999;999;999;999;fullscreenExp;999;999;999;999;999;999;999;999;999;fullscreen;104;205562;0.0-104.0;8651065;06/05/2020 14:25
999;fixation_cross;999;999;fixation;0;13;1;1;1;7;1;9;2;html-keyboard-response;105;206566;0.0-105.0;8651065;06/05/2020 14:25
999;imgJS/WMF_scramble_1.jpg,imgJS/WMF_scramble_8.jpg,imgJS/WMF_scramble_20.jpg,imgJS/WMF_scramble_14.jpg,imgJS/WMF_scramble_9.jpg,imgJS/WMF_scramble_18.jpg,imgJS/WMF_scramble_12.jpg,imgJS/WMF_10.jpg,imgJS/WMF_scramble_10.jpg,imgJS/WFN_61.jpg,imgJS/WMF_s;999;999;rsvp_img_15;0;13;1;1;1;7;1;9;2;rsvp_flux;106;207619;0.0-106.0;8651065;06/05/2020 14:25
461.69999998529;"<div style=""font-size:20px;""><p> Avez-vous vu au moins une femme? </p><p> <strong> Oui [O] / Non [N] </strong></p> </div>";999;78;rsvpAnswFem;0;13;1;1;1;7;1;9;2;html-keyboard-response;107;208084;0.0-107.0;8651065;06/05/2020 14:25
999;999;999;999;fullscreenExp;999;999;999;999;999;999;999;999;999;fullscreen;108;208134;0.0-108.0;8651065;06/05/2020 14:25
999;fixation_cross;999;999;fixation;0;14;1;1;1;4;1;8;3;html-keyboard-response;109;209139;0.0-109.0;8651065;06/05/2020 14:25
999;imgJS/WMF_scramble_28.jpg,imgJS/WMF_scramble_8.jpg,imgJS/WMF_scramble_6.jpg,imgJS/WMF_scramble_24.jpg,imgJS/WMF_18.jpg,imgJS/WMF_scramble_13.jpg,imgJS/WMF_scramble_28.jpg,imgJS/WMF_scramble_19.jpg,imgJS/WMN_55.jpg,imgJS/WMF_scramble_19.jpg,imgJS/WMF_;999;999;rsvp_img_15;0;14;1;1;1;4;1;8;3;rsvp_flux;110;210193;0.0-110.0;8651065;06/05/2020 14:25
570.60500001535;"<div style=""font-size:20px;""><p> Avez-vous vu au moins une femme? </p><p> <strong> Oui [O] / Non [N] </strong></p> </div>";999;78;rsvpAnswFem;0;14;1;1;1;4;1;8;3;html-keyboard-response;111;210767;0.0-111.0;8651065;06/05/2020 14:25
999;999;999;999;fullscreenExp;999;999;999;999;999;999;999;999;999;fullscreen;112;210812;0.0-112.0;8651065;06/05/2020 14:25
999;fixation_cross;999;999;fixation;0;15;1;2;1;5;0;7;2;html-keyboard-response;113;211816;0.0-113.0;8651065;06/05/2020 14:25
999;imgJS/WFF_scramble_36.jpg,imgJS/WFF_scramble_32.jpg,imgJS/WFF_scramble_11.jpg,imgJS/WFF_scramble_5.jpg,imgJS/WFF_scramble_24.jpg,imgJS/WFF_28.jpg,imgJS/WFF_scramble_15.jpg,imgJS/WFN_41.jpg,imgJS/WFF_scramble_31.jpg,imgJS/WFF_scramble_30.jpg,imgJS/WFF;999;999;rsvp_img_15;0;15;1;2;1;5;0;7;2;rsvp_flux;114;212870;0.0-114.0;8651065;06/05/2020 14:25
497.8200000478;"<div style=""font-size:20px;""><p> Avez-vous vu au moins un homme? </p><p> <strong> Oui [O] / Non [N] </strong></p> </div>";999;78;rsvpAnswHom;0;15;1;2;1;5;0;7;2;html-keyboard-response;115;213371;0.0-115.0;8651065;06/05/2020 14:25
999;999;999;999;fullscreenExp;999;999;999;999;999;999;999;999;999;fullscreen;116;213422;0.0-116.0;8651065;06/05/2020 14:25
999;fixation_cross;999;999;fixation;0;16;1;4;1;4;2;8;3;html-keyboard-response;117;214426;0.0-117.0;8651065;06/05/2020 14:25
999;imgJS/WFN_scramble_36.jpg,imgJS/WFN_scramble_59.jpg,imgJS/WFN_scramble_31.jpg,imgJS/WFN_scramble_26.jpg,imgJS/WFN_62.jpg,imgJS/WFN_scramble_80.jpg,imgJS/WFN_scramble_38.jpg,imgJS/WFN_scramble_71.jpg,imgJS/WMN_67.jpg,imgJS/WFN_scramble_13.jpg,imgJS/WF;999;999;rsvp_img_15;0;16;1;4;1;4;2;8;3;rsvp_flux;118;215481;0.0-118.0;8651065;06/05/2020 14:25
298.6750000855;"<div style=""font-size:20px;""><p> Avez-vous vu au moins un homme? </p><p> <strong> Oui [O] / Non [N] </strong></p> </div>";999;79;rsvpAnswHom;0;16;1;4;1;4;2;8;3;html-keyboard-response;119;215783;0.0-119.0;8651065;06/05/2020 14:25
999;999;999;999;fullscreenExp;999;999;999;999;999;999;999;999;999;fullscreen;120;215834;0.0-120.0;8651065;06/05/2020 14:25
999;fixation_cross;999;999;fixation;0;17;1;2;1;5;0;9;2;html-keyboard-response;121;216839;0.0-121.0;8651065;06/05/2020 14:25
999;imgJS/WFF_scramble_5.jpg,imgJS/WFF_scramble_24.jpg,imgJS/WFF_scramble_19.jpg,imgJS/WFF_scramble_2.jpg,imgJS/WFF_scramble_8.jpg,imgJS/WFF_2.jpg,imgJS/WFF_scramble_11.jpg,imgJS/WFF_scramble_27.jpg,imgJS/WFF_scramble_3.jpg,imgJS/WFN_16.jpg,imgJS/WFF_scr;999;999;rsvp_img_15;0;17;1;2;1;5;0;9;2;rsvp_flux;122;217893;0.0-122.0;8651065;06/05/2020 14:25
682.57499998435;"<div style=""font-size:20px;""><p> Avez-vous vu au moins un homme? </p><p> <strong> Oui [O] / Non [N] </strong></p> </div>";999;78;rsvpAnswHom;0;17;1;2;1;5;0;9;2;html-keyboard-response;123;218579;0.0-123.0;8651065;06/05/2020 14:25
999;999;999;999;fullscreenExp;999;999;999;999;999;999;999;999;999;fullscreen;124;218628;0.0-124.0;8651065;06/05/2020 14:25
999;fixation_cross;999;999;fixation;0;18;1;2;1;8;0;10;2;html-keyboard-response;125;219633;0.0-125.0;8651065;06/05/2020 14:25
999;imgJS/WFF_scramble_25.jpg,imgJS/WFF_scramble_5.jpg,imgJS/WFF_scramble_32.jpg,imgJS/WFF_scramble_24.jpg,imgJS/WFF_scramble_33.jpg,imgJS/WFF_scramble_29.jpg,imgJS/WFF_scramble_36.jpg,imgJS/WFF_scramble_35.jpg,imgJS/WFF_9.jpg,imgJS/WFF_scramble_4.jpg,im;999;999;rsvp_img_15;0;18;1;2;1;8;0;10;2;rsvp_flux;126;220688;0.0-126.0;8651065;06/05/2020 14:25
1562.4949999619;"<div style=""font-size:20px;""><p> Avez-vous vu au moins un homme? </p><p> <strong> Oui [O] / Non [N] </strong></p> </div>";999;78;rsvpAnswHom;0;18;1;2;1;8;0;10;2;html-keyboard-response;127;222255;0.0-127.0;8651065;06/05/2020 14:25
999;999;999;999;fullscreenExp;999;999;999;999;999;999;999;999;999;fullscreen;128;222294;0.0-128.0;8651065;06/05/2020 14:25
999;fixation_cross;999;999;fixation;0;19;1;1;1;6;1;10;3;html-keyboard-response;129;223299;0.0-129.0;8651065;06/05/2020 14:25
999;imgJS/WMF_scramble_28.jpg,imgJS/WMF_scramble_19.jpg,imgJS/WMF_scramble_26.jpg,imgJS/WMF_scramble_8.jpg,imgJS/WMF_scramble_13.jpg,imgJS/WMF_scramble_22.jpg,imgJS/WMF_28.jpg,imgJS/WMF_scramble_7.jpg,imgJS/WMF_scramble_19.jpg,imgJS/WMF_scramble_20.jpg,i;999;999;rsvp_img_15;0;19;1;1;1;6;1;10;3;rsvp_flux;130;224354;0.0-130.0;8651065;06/05/2020 14:25
797.11499996483;"<div style=""font-size:20px;""><p> Avez-vous vu au moins une femme? </p><p> <strong> Oui [O] / Non [N] </strong></p> </div>";999;78;rsvpAnswFem;0;19;1;1;1;6;1;10;3;html-keyboard-response;131;225153;0.0-131.0;8651065;06/05/2020 14:25
999;999;999;999;fullscreenExp;999;999;999;999;999;999;999;999;999;fullscreen;132;225201;0.0-132.0;8651065;06/05/2020 14:25
999;fixation_cross;999;999;fixation;0;20;1;3;1;5;1;9;0;html-keyboard-response;133;226205;0.0-133.0;8651065;06/05/2020 14:25
999;imgJS/WMF_scramble_28.jpg,imgJS/WMF_scramble_21.jpg,imgJS/WMF_scramble_22.jpg,imgJS/WMF_scramble_7.jpg,imgJS/WMF_scramble_9.jpg,imgJS/WMF_16.jpg,imgJS/WMF_scramble_17.jpg,imgJS/WMF_scramble_2.jpg,imgJS/WMF_scramble_14.jpg,imgJS/WFF_7.jpg,imgJS/WMF_sc;999;999;rsvp_img_15;0;20;1;3;1;5;1;9;0;rsvp_flux;134;227258;0.0-134.0;8651065;06/05/2020 14:25
2710.1999999722;"<div style=""font-size:20px;""><p> Avez-vous vu au moins une femme? </p><p> <strong> Oui [O] / Non [N] </strong></p> </div>";999;79;rsvpAnswFem;0;20;1;3;1;5;1;9;0;html-keyboard-response;135;229971;0.0-135.0;8651065;06/05/2020 14:25
999;999;999;999;fullscreenExp;999;999;999;999;999;999;999;999;999;fullscreen;136;230012;0.0-136.0;8651065;06/05/2020 14:25
999;fixation_cross;999;999;fixation;0;21;1;1;1;6;1;10;3;html-keyboard-response;137;231017;0.0-137.0;8651065;06/05/2020 14:25
999;imgJS/WMF_scramble_7.jpg,imgJS/WMF_scramble_6.jpg,imgJS/WMF_scramble_9.jpg,imgJS/WMF_scramble_11.jpg,imgJS/WMF_scramble_28.jpg,imgJS/WMF_scramble_10.jpg,imgJS/WMF_19.jpg,imgJS/WMF_scramble_27.jpg,imgJS/WMF_scramble_5.jpg,imgJS/WMF_scramble_5.jpg,imgJ;999;999;rsvp_img_15;0;21;1;1;1;6;1;10;3;rsvp_flux;138;232071;0.0-138.0;8651065;06/05/2020 14:25
866.55499995686;"<div style=""font-size:20px;""><p> Avez-vous vu au moins une femme? </p><p> <strong> Oui [O] / Non [N] </strong></p> </div>";999;78;rsvpAnswFem;0;21;1;1;1;6;1;10;3;html-keyboard-response;139;232940;0.0-139.0;8651065;06/05/2020 14:25
999;999;999;999;fullscreenExp;999;999;999;999;999;999;999;999;999;fullscreen;140;232977;0.0-140.0;8651065;06/05/2020 14:25
999;fixation_cross;999;999;fixation;0;22;1;3;1;5;3;7;3;html-keyboard-response;141;233982;0.0-141.0;8651065;06/05/2020 14:25
999;imgJS/WMN_scramble_32.jpg,imgJS/WMN_scramble_18.jpg,imgJS/WMN_scramble_43.jpg,imgJS/WMN_scramble_1.jpg,imgJS/WMN_scramble_35.jpg,imgJS/WMN_50.jpg,imgJS/WMN_scramble_88.jpg,imgJS/WMN_47.jpg,imgJS/WMN_scramble_59.jpg,imgJS/WMN_scramble_82.jpg,imgJS/WMN;999;999;rsvp_img_15;0;22;1;3;1;5;3;7;3;rsvp_flux;142;235036;0.0-142.0;8651065;06/05/2020 14:25
678.84499998763;"<div style=""font-size:20px;""><p> Avez-vous vu au moins une femme? </p><p> <strong> Oui [O] / Non [N] </strong></p> </div>";999;78;rsvpAnswFem;0;22;1;3;1;5;3;7;3;html-keyboard-response;143;235718;0.0-143.0;8651065;06/05/2020 14:25
999;999;999;999;fullscreenExp;999;999;999;999;999;999;999;999;999;fullscreen;144;235756;0.0-144.0;8651065;06/05/2020 14:25
999;fixation_cross;999;999;fixation;0;23;1;2;1;7;0;11;2;html-keyboard-response;145;236762;0.0-145.0;8651065;06/05/2020 14:25
999;imgJS/WFF_scramble_24.jpg,imgJS/WFF_scramble_28.jpg,imgJS/WFF_scramble_1.jpg,imgJS/WFF_scramble_30.jpg,imgJS/WFF_scramble_13.jpg,imgJS/WFF_scramble_2.jpg,imgJS/WFF_scramble_10.jpg,imgJS/WFF_34.jpg,imgJS/WFF_scramble_35.jpg,imgJS/WFF_scramble_14.jpg,i;999;999;rsvp_img_15;0;23;1;2;1;7;0;11;2;rsvp_flux;146;237817;0.0-146.0;8651065;06/05/2020 14:25
703.05999997072;"<div style=""font-size:20px;""><p> Avez-vous vu au moins un homme? </p><p> <strong> Oui [O] / Non [N] </strong></p> </div>";999;78;rsvpAnswHom;0;23;1;2;1;7;0;11;2;html-keyboard-response;147;238523;0.0-147.0;8651065;06/05/2020 14:25
999;999;999;999;fullscreenExp;999;999;999;999;999;999;999;999;999;fullscreen;148;238569;0.0-148.0;8651065;06/05/2020 14:25
999;instructions/instructionsDiapo/Slide10.jpg;999;999;instrCondi;1;999;NULL;NULL;1;999;999;999;999;image-keyboard-response;149;259979;0.0-149.0;8651065;06/05/2020 14:25
999;fixation_cross;999;999;fixation;1;0;2;5;1;7;3;9;1;html-keyboard-response;150;260984;0.0-150.0;8651065;06/05/2020 14:25
999;imgJS/WMN_scramble_18.jpg,imgJS/WMN_scramble_12.jpg,imgJS/WMN_scramble_30.jpg,imgJS/WMN_scramble_37.jpg,imgJS/WMN_scramble_26.jpg,imgJS/WMN_scramble_19.jpg,imgJS/WMN_scramble_20.jpg,imgJS/WMN_66.jpg,imgJS/WMN_scramble_60.jpg,imgJS/WMF_9.jpg,imgJS/WMN;999;999;rsvp_img_15;1;0;2;5;1;7;3;9;1;rsvp_flux;151;262038;0.0-151.0;8651065;06/05/2020 14:25
1112.4100000598;"<div style=""font-size:20px;""><p> Avez-vous vu au moins une femme? </p><p> <strong> Oui [O] / Non [N] </strong></p> </div>";999;78;rsvpAnswFem;1;0;2;5;1;7;3;9;1;html-keyboard-response;152;263153;0.0-152.0;8651065;06/05/2020 14:25
999;999;999;999;fullscreenExp;999;999;999;999;999;999;999;999;999;fullscreen;153;265247;0.0-153.0;8651065;06/05/2020 14:25
999;fixation_cross;999;999;fixation;1;1;2;4;1;8;0;12;1;html-keyboard-response;154;266253;0.0-154.0;8651065;06/05/2020 14:25
999;imgJS/WFF_scramble_36.jpg,imgJS/WFF_scramble_26.jpg,imgJS/WFF_scramble_35.jpg,imgJS/WFF_scramble_24.jpg,imgJS/WFF_scramble_28.jpg,imgJS/WFF_scramble_21.jpg,imgJS/WFF_scramble_25.jpg,imgJS/WFF_scramble_3.jpg,imgJS/WFF_35.jpg,imgJS/WFF_scramble_15.jpg,;999;999;rsvp_img_15;1;1;2;4;1;8;0;12;1;rsvp_flux;155;267306;0.0-155.0;8651065;06/05/2020 14:25
872.61500000022;"<div style=""font-size:20px;""><p> Avez-vous vu au moins un homme? </p><p> <strong> Oui [O] / Non [N] </strong></p> </div>";999;79;rsvpAnswHom;1;1;2;4;1;8;0;12;1;html-keyboard-response;156;268181;0.0-156.0;8651065;06/05/2020 14:25
999;999;999;999;fullscreenExp;999;999;999;999;999;999;999;999;999;fullscreen;157;268222;0.0-157.0;8651065;06/05/2020 14:25
999;fixation_cross;999;999;fixation;1;2;2;4;1;4;0;8;1;html-keyboard-response;158;269227;0.0-158.0;8651065;06/05/2020 14:25
999;imgJS/WFF_scramble_23.jpg,imgJS/WFF_scramble_29.jpg,imgJS/WFF_scramble_19.jpg,imgJS/WFF_scramble_34.jpg,imgJS/WFF_2.jpg,imgJS/WFF_scramble_23.jpg,imgJS/WFF_scramble_24.jpg,imgJS/WFF_scramble_32.jpg,imgJS/WMF_18.jpg,imgJS/WFF_scramble_10.jpg,imgJS/WFF;999;999;rsvp_img_15;1;2;2;4;1;4;0;8;1;rsvp_flux;159;270281;0.0-159.0;8651065;06/05/2020 14:25
950.1750000054;"<div style=""font-size:20px;""><p> Avez-vous vu au moins un homme? </p><p> <strong> Oui [O] / Non [N] </strong></p> </div>";999;79;rsvpAnswHom;1;2;2;4;1;4;0;8;1;html-keyboard-response;160;271234;0.0-160.0;8651065;06/05/2020 14:25
999;999;999;999;fullscreenExp;999;999;999;999;999;999;999;999;999;fullscreen;161;271272;0.0-161.0;8651065;06/05/2020 14:25
999;fixation_cross;999;999;fixation;1;3;2;3;1;8;1;10;0;html-keyboard-response;162;272276;0.0-162.0;8651065;06/05/2020 14:25
999;imgJS/WMF_scramble_25.jpg,imgJS/WMF_scramble_26.jpg,imgJS/WMF_scramble_18.jpg,imgJS/WMF_scramble_20.jpg,imgJS/WMF_scramble_20.jpg,imgJS/WMF_scramble_19.jpg,imgJS/WMF_scramble_14.jpg,imgJS/WMF_scramble_10.jpg,imgJS/WMF_9.jpg,imgJS/WMF_scramble_16.jpg,;999;999;rsvp_img_15;1;3;2;3;1;8;1;10;0;rsvp_flux;163;273330;0.0-163.0;8651065;06/05/2020 14:25
604.20499998145;"<div style=""font-size:20px;""><p> Avez-vous vu au moins une femme? </p><p> <strong> Oui [O] / Non [N] </strong></p> </div>";999;79;rsvpAnswFem;1;3;2;3;1;8;1;10;0;html-keyboard-response;164;273936;0.0-164.0;8651065;06/05/2020 14:25
999;999;999;999;fullscreenExp;999;999;999;999;999;999;999;999;999;fullscreen;165;273976;0.0-165.0;8651065;06/05/2020 14:25
999;fixation_cross;999;999;fixation;1;4;2;5;1;8;3;10;1;html-keyboard-response;166;274981;0.0-166.0;8651065;06/05/2020 14:25
999;imgJS/WMN_scramble_80.jpg,imgJS/WMN_scramble_13.jpg,imgJS/WMN_scramble_46.jpg,imgJS/WMN_scramble_28.jpg,imgJS/WMN_scramble_25.jpg,imgJS/WMN_scramble_32.jpg,imgJS/WMN_scramble_1.jpg,imgJS/WMN_scramble_56.jpg,imgJS/WMN_6.jpg,imgJS/WMN_scramble_79.jpg,i;999;999;rsvp_img_15;1;4;2;5;1;8;3;10;1;rsvp_flux;167;276034;0.0-167.0;8651065;06/05/2020 14:25
670.3100000741;"<div style=""font-size:20px;""><p> Avez-vous vu au moins une femme? </p><p> <strong> Oui [O] / Non [N] </strong></p> </div>";999;78;rsvpAnswFem;1;4;2;5;1;8;3;10;1;html-keyboard-response;168;276708;0.0-168.0;8651065;06/05/2020 14:25
999;999;999;999;fullscreenExp;999;999;999;999;999;999;999;999;999;fullscreen;169;276746;0.0-169.0;8651065;06/05/2020 14:25
999;fixation_cross;999;999;fixation;1;5;2;5;1;8;3;10;1;html-keyboard-response;170;277750;0.0-170.0;8651065;06/05/2020 14:25
999;imgJS/WMN_scramble_27.jpg,imgJS/WMN_scramble_44.jpg,imgJS/WMN_scramble_35.jpg,imgJS/WMN_scramble_53.jpg,imgJS/WMN_scramble_88.jpg,imgJS/WMN_scramble_46.jpg,imgJS/WMN_scramble_59.jpg,imgJS/WMN_scramble_84.jpg,imgJS/WMN_1.jpg,imgJS/WMN_scramble_53.jpg,;999;999;rsvp_img_15;1;5;2;5;1;8;3;10;1;rsvp_flux;171;278805;0.0-171.0;8651065;06/05/2020 14:25
728.95999997854;"<div style=""font-size:20px;""><p> Avez-vous vu au moins une femme? </p><p> <strong> Oui [O] / Non [N] </strong></p> </div>";999;78;rsvpAnswFem;1;5;2;5;1;8;3;10;1;html-keyboard-response;172;279537;0.0-172.0;8651065;06/05/2020 14:25
999;999;999;999;fullscreenExp;999;999;999;999;999;999;999;999;999;fullscreen;173;279576;0.0-173.0;8651065;06/05/2020 14:25
999;fixation_cross;999;999;fixation;1;6;2;5;1;6;3;10;1;html-keyboard-response;174;280580;0.0-174.0;8651065;06/05/2020 14:25
999;imgJS/WMN_scramble_44.jpg,imgJS/WMN_scramble_8.jpg,imgJS/WMN_scramble_81.jpg,imgJS/WMN_scramble_75.jpg,imgJS/WMN_scramble_64.jpg,imgJS/WMN_scramble_62.jpg,imgJS/WMN_36.jpg,imgJS/WMN_scramble_17.jpg,imgJS/WMN_scramble_53.jpg,imgJS/WMN_scramble_2.jpg,i;999;999;rsvp_img_15;1;6;2;5;1;6;3;10;1;rsvp_flux;175;281634;0.0-175.0;8651065;06/05/2020 14:25
366.25999992248;"<div style=""font-size:20px;""><p> Avez-vous vu au moins une femme? </p><p> <strong> Oui [O] / Non [N] </strong></p> </div>";999;78;rsvpAnswFem;1;6;2;5;1;6;3;10;1;html-keyboard-response;176;282003;0.0-176.0;8651065;06/05/2020 14:25
999;999;999;999;fullscreenExp;999;999;999;999;999;999;999;999;999;fullscreen;177;282007;0.0-177.0;8651065;06/05/2020 14:25
999;fixation_cross;999;999;fixation;1;7;2;6;1;8;2;12;0;html-keyboard-response;178;283049;0.0-178.0;8651065;06/05/2020 14:25
999;imgJS/WFN_scramble_40.jpg,imgJS/WFN_scramble_69.jpg,imgJS/WFN_scramble_3.jpg,imgJS/WFN_scramble_83.jpg,imgJS/WFN_scramble_86.jpg,imgJS/WFN_scramble_25.jpg,imgJS/WFN_scramble_16.jpg,imgJS/WFN_scramble_74.jpg,imgJS/WFN_33.jpg,imgJS/WFN_scramble_70.jpg,;999;999;rsvp_img_15;1;7;2;6;1;8;2;12;0;rsvp_flux;179;284103;0.0-179.0;8651065;06/05/2020 14:25
2381.5849999664;"<div style=""font-size:20px;""><p> Avez-vous vu au moins un homme? </p><p> <strong> Oui [O] / Non [N] </strong></p> </div>";999;78;rsvpAnswHom;1;7;2;6;1;8;2;12;0;html-keyboard-response;180;286487;0.0-180.0;8651065;06/05/2020 14:25
999;999;999;999;fullscreenExp;999;999;999;999;999;999;999;999;999;fullscreen;181;286526;0.0-181.0;8651065;06/05/2020 14:25
999;fixation_cross;999;999;fixation;1;8;2;6;1;7;2;11;0;html-keyboard-response;182;287531;0.0-182.0;8651065;06/05/2020 14:25
999;imgJS/WFN_scramble_48.jpg,imgJS/WFN_scramble_77.jpg,imgJS/WFN_scramble_6.jpg,imgJS/WFN_scramble_64.jpg,imgJS/WFN_scramble_78.jpg,imgJS/WFN_scramble_7.jpg,imgJS/WFN_scramble_50.jpg,imgJS/WFN_85.jpg,imgJS/WFN_scramble_10.jpg,imgJS/WFN_scramble_25.jpg,i;999;999;rsvp_img_15;1;8;2;6;1;7;2;11;0;rsvp_flux;183;288585;0.0-183.0;8651065;06/05/2020 14:25
547.08000004757;"<div style=""font-size:20px;""><p> Avez-vous vu au moins un homme? </p><p> <strong> Oui [O] / Non [N] </strong></p> </div>";999;78;rsvpAnswHom;1;8;2;6;1;7;2;11;0;html-keyboard-response;184;289134;0.0-184.0;8651065;06/05/2020 14:25
999;999;999;999;fullscreenExp;999;999;999;999;999;999;999;999;999;fullscreen;185;289192;0.0-185.0;8651065;06/05/2020 14:25
999;fixation_cross;999;999;fixation;1;9;2;6;1;7;2;11;1;html-keyboard-response;186;290197;0.0-186.0;8651065;06/05/2020 14:25
999;imgJS/WFN_scramble_60.jpg,imgJS/WFN_scramble_46.jpg,imgJS/WFN_scramble_48.jpg,imgJS/WFN_scramble_57.jpg,imgJS/WFN_scramble_49.jpg,imgJS/WFN_scramble_72.jpg,imgJS/WFN_scramble_36.jpg,imgJS/WFN_5.jpg,imgJS/WFN_scramble_13.jpg,imgJS/WFN_scramble_5.jpg,i;999;999;rsvp_img_15;1;9;2;6;1;7;2;11;1;rsvp_flux;187;291250;0.0-187.0;8651065;06/05/2020 14:25
736.30500002764;"<div style=""font-size:20px;""><p> Avez-vous vu au moins un homme? </p><p> <strong> Oui [O] / Non [N] </strong></p> </div>";999;79;rsvpAnswHom;1;9;2;6;1;7;2;11;1;html-keyboard-response;188;291989;0.0-188.0;8651065;06/05/2020 14:25
999;999;999;999;fullscreenExp;999;999;999;999;999;999;999;999;999;fullscreen;189;292032;0.0-189.0;8651065;06/05/2020 14:25
999;fixation_cross;999;999;fixation;1;10;2;3;1;4;3;6;3;html-keyboard-response;190;293038;0.0-190.0;8651065;06/05/2020 14:25
999;imgJS/WMN_scramble_28.jpg,imgJS/WMN_scramble_36.jpg,imgJS/WMN_scramble_59.jpg,imgJS/WMN_scramble_58.jpg,imgJS/WMN_17.jpg,imgJS/WMN_scramble_3.jpg,imgJS/WMN_87.jpg,imgJS/WMN_scramble_31.jpg,imgJS/WMN_scramble_55.jpg,imgJS/WMN_scramble_68.jpg,imgJS/WMN;999;999;rsvp_img_15;1;10;2;3;1;4;3;6;3;rsvp_flux;191;294092;0.0-191.0;8651065;06/05/2020 14:25
569.27500001621;"<div style=""font-size:20px;""><p> Avez-vous vu au moins une femme? </p><p> <strong> Oui [O] / Non [N] </strong></p> </div>";999;78;rsvpAnswFem;1;10;2;3;1;4;3;6;3;html-keyboard-response;192;294664;0.0-192.0;8651065;06/05/2020 14:25
999;999;999;999;fullscreenExp;999;999;999;999;999;999;999;999;999;fullscreen;193;294704;0.0-193.0;8651065;06/05/2020 14:25
999;fixation_cross;999;999;fixation;1;11;2;4;1;6;0;10;1;html-keyboard-response;194;295709;0.0-194.0;8651065;06/05/2020 14:25
999;imgJS/WFF_scramble_19.jpg,imgJS/WFF_scramble_34.jpg,imgJS/WFF_scramble_13.jpg,imgJS/WFF_scramble_25.jpg,imgJS/WFF_scramble_32.jpg,imgJS/WFF_scramble_32.jpg,imgJS/WFF_14.jpg,imgJS/WFF_scramble_3.jpg,imgJS/WFF_scramble_18.jpg,imgJS/WFF_scramble_1.jpg,i;999;999;rsvp_img_15;1;11;2;4;1;6;0;10;1;rsvp_flux;195;296763;0.0-195.0;8651065;06/05/2020 14:25
946.72000000719;"<div style=""font-size:20px;""><p> Avez-vous vu au moins un homme? </p><p> <strong> Oui [O] / Non [N] </strong></p> </div>";999;79;rsvpAnswHom;1;11;2;4;1;6;0;10;1;html-keyboard-response;196;297712;0.0-196.0;8651065;06/05/2020 14:25
999;999;999;999;fullscreenExp;999;999;999;999;999;999;999;999;999;fullscreen;197;297750;0.0-197.0;8651065;06/05/2020 14:25
999;fixation_cross;999;999;fixation;1;12;2;5;1;6;3;8;0;html-keyboard-response;198;298755;0.0-198.0;8651065;06/05/2020 14:25
999;imgJS/WMN_scramble_77.jpg,imgJS/WMN_scramble_11.jpg,imgJS/WMN_scramble_51.jpg,imgJS/WMN_scramble_77.jpg,imgJS/WMN_scramble_83.jpg,imgJS/WMN_scramble_33.jpg,imgJS/WMN_2.jpg,imgJS/WMN_scramble_28.jpg,imgJS/WFF_5.jpg,imgJS/WMN_scramble_48.jpg,imgJS/WMN_;999;999;rsvp_img_15;1;12;2;5;1;6;3;8;0;rsvp_flux;199;299809;0.0-199.0;8651065;06/05/2020 14:25
371.44500005525;"<div style=""font-size:20px;""><p> Avez-vous vu au moins une femme? </p><p> <strong> Oui [O] / Non [N] </strong></p> </div>";999;79;rsvpAnswFem;1;12;2;5;1;6;3;8;0;html-keyboard-response;200;300183;0.0-200.0;8651065;06/05/2020 14:25
999;999;999;999;fullscreenExp;999;999;999;999;999;999;999;999;999;fullscreen;201;300222;0.0-201.0;8651065;06/05/2020 14:25
999;fixation_cross;999;999;fixation;1;13;2;6;1;6;2;10;0;html-keyboard-response;202;301228;0.0-202.0;8651065;06/05/2020 14:25
999;imgJS/WFN_scramble_27.jpg,imgJS/WFN_scramble_34.jpg,imgJS/WFN_scramble_26.jpg,imgJS/WFN_scramble_61.jpg,imgJS/WFN_scramble_48.jpg,imgJS/WFN_scramble_61.jpg,imgJS/WFN_53.jpg,imgJS/WFN_scramble_13.jpg,imgJS/WFN_scramble_22.jpg,imgJS/WFN_scramble_35.jpg;999;999;rsvp_img_15;1;13;2;6;1;6;2;10;0;rsvp_flux;203;302281;0.0-203.0;8651065;06/05/2020 14:25
625.4300000146;"<div style=""font-size:20px;""><p> Avez-vous vu au moins un homme? </p><p> <strong> Oui [O] / Non [N] </strong></p> </div>";999;78;rsvpAnswHom;1;13;2;6;1;6;2;10;0;html-keyboard-response;204;302909;0.0-204.0;8651065;06/05/2020 14:25
999;999;999;999;fullscreenExp;999;999;999;999;999;999;999;999;999;fullscreen;205;302952;0.0-205.0;8651065;06/05/2020 14:25
999;fixation_cross;999;999;fixation;1;14;2;3;1;4;3;8;3;html-keyboard-response;206;303957;0.0-206.0;8651065;06/05/2020 14:25
999;imgJS/WMN_scramble_80.jpg,imgJS/WMN_scramble_62.jpg,imgJS/WMN_scramble_87.jpg,imgJS/WMN_scramble_62.jpg,imgJS/WMN_81.jpg,imgJS/WMN_scramble_11.jpg,imgJS/WMN_scramble_49.jpg,imgJS/WMN_scramble_37.jpg,imgJS/WMN_49.jpg,imgJS/WMN_scramble_30.jpg,imgJS/WM;999;999;rsvp_img_15;1;14;2;3;1;4;3;8;3;rsvp_flux;207;305011;0.0-207.0;8651065;06/05/2020 14:25
602.03499998897;"<div style=""font-size:20px;""><p> Avez-vous vu au moins une femme? </p><p> <strong> Oui [O] / Non [N] </strong></p> </div>";999;78;rsvpAnswFem;1;14;2;3;1;4;3;8;3;html-keyboard-response;208;305616;0.0-208.0;8651065;06/05/2020 14:25
999;999;999;999;fullscreenExp;999;999;999;999;999;999;999;999;999;fullscreen;209;305658;0.0-209.0;8651065;06/05/2020 14:25
999;fixation_cross;999;999;fixation;1;15;2;6;1;6;2;10;1;html-keyboard-response;210;306663;0.0-210.0;8651065;06/05/2020 14:25
999;imgJS/WFN_scramble_13.jpg,imgJS/WFN_scramble_62.jpg,imgJS/WFN_scramble_62.jpg,imgJS/WFN_scramble_11.jpg,imgJS/WFN_scramble_76.jpg,imgJS/WFN_scramble_55.jpg,imgJS/WFN_33.jpg,imgJS/WFN_scramble_43.jpg,imgJS/WFN_scramble_68.jpg,imgJS/WFN_scramble_63.jpg;999;999;rsvp_img_15;1;15;2;6;1;6;2;10;1;rsvp_flux;211;307716;0.0-211.0;8651065;06/05/2020 14:25
855.70000007283;"<div style=""font-size:20px;""><p> Avez-vous vu au moins un homme? </p><p> <strong> Oui [O] / Non [N] </strong></p> </div>";999;79;rsvpAnswHom;1;15;2;6;1;6;2;10;1;html-keyboard-response;212;308574;0.0-212.0;8651065;06/05/2020 14:25
999;999;999;999;fullscreenExp;999;999;999;999;999;999;999;999;999;fullscreen;213;308611;0.0-213.0;8651065;06/05/2020 14:25
999;fixation_cross;999;999;fixation;1;16;2;4;1;5;2;9;2;html-keyboard-response;214;309616;0.0-214.0;8651065;06/05/2020 14:25
999;imgJS/WFN_scramble_33.jpg,imgJS/WFN_scramble_18.jpg,imgJS/WFN_scramble_55.jpg,imgJS/WFN_scramble_37.jpg,imgJS/WFN_scramble_45.jpg,imgJS/WFN_20.jpg,imgJS/WFN_scramble_21.jpg,imgJS/WFN_scramble_58.jpg,imgJS/WFN_scramble_67.jpg,imgJS/WFN_81.jpg,imgJS/WF;999;999;rsvp_img_15;1;16;2;4;1;5;2;9;2;rsvp_flux;215;310671;0.0-215.0;8651065;06/05/2020 14:25
1393.0150000378;"<div style=""font-size:20px;""><p> Avez-vous vu au moins un homme? </p><p> <strong> Oui [O] / Non [N] </strong></p> </div>";999;78;rsvpAnswHom;1;16;2;4;1;5;2;9;2;html-keyboard-response;216;312067;0.0-216.0;8651065;06/05/2020 14:25
999;999;999;999;fullscreenExp;999;999;999;999;999;999;999;999;999;fullscreen;217;312106;0.0-217.0;8651065;06/05/2020 14:25
999;fixation_cross;999;999;fixation;1;17;2;6;1;7;2;11;1;html-keyboard-response;218;313109;0.0-218.0;8651065;06/05/2020 14:25
999;imgJS/WFN_scramble_50.jpg,imgJS/WFN_scramble_2.jpg,imgJS/WFN_scramble_12.jpg,imgJS/WFN_scramble_12.jpg,imgJS/WFN_scramble_27.jpg,imgJS/WFN_scramble_65.jpg,imgJS/WFN_scramble_46.jpg,imgJS/WFN_36.jpg,imgJS/WFN_scramble_20.jpg,imgJS/WFN_scramble_14.jpg,;999;999;rsvp_img_15;1;17;2;6;1;7;2;11;1;rsvp_flux;219;314163;0.0-219.0;8651065;06/05/2020 14:25
929.62999991141;"<div style=""font-size:20px;""><p> Avez-vous vu au moins un homme? </p><p> <strong> Oui [O] / Non [N] </strong></p> </div>";999;79;rsvpAnswHom;1;17;2;6;1;7;2;11;1;html-keyboard-response;220;315095;0.0-220.0;8651065;06/05/2020 14:25
999;999;999;999;fullscreenExp;999;999;999;999;999;999;999;999;999;fullscreen;221;315137;0.0-221.0;8651065;06/05/2020 14:25
999;fixation_cross;999;999;fixation;1;18;2;5;1;7;3;11;0;html-keyboard-response;222;316142;0.0-222.0;8651065;06/05/2020 14:25
999;imgJS/WMN_scramble_47.jpg,imgJS/WMN_scramble_65.jpg,imgJS/WMN_scramble_91.jpg,imgJS/WMN_scramble_67.jpg,imgJS/WMN_scramble_41.jpg,imgJS/WMN_scramble_58.jpg,imgJS/WMN_scramble_37.jpg,imgJS/WMN_6.jpg,imgJS/WMN_scramble_71.jpg,imgJS/WMN_scramble_34.jpg,;999;999;rsvp_img_15;1;18;2;5;1;7;3;11;0;rsvp_flux;223;317195;0.0-223.0;8651065;06/05/2020 14:25
1152.6950000552;"<div style=""font-size:20px;""><p> Avez-vous vu au moins une femme? </p><p> <strong> Oui [O] / Non [N] </strong></p> </div>";999;79;rsvpAnswFem;1;18;2;5;1;7;3;11;0;html-keyboard-response;224;318350;0.0-224.0;8651065;06/05/2020 14:25
999;999;999;999;fullscreenExp;999;999;999;999;999;999;999;999;999;fullscreen;225;318388;0.0-225.0;8651065;06/05/2020 14:25
999;fixation_cross;999;999;fixation;1;19;2;6;1;7;2;9;1;html-keyboard-response;226;319393;0.0-226.0;8651065;06/05/2020 14:25
999;imgJS/WFN_scramble_59.jpg,imgJS/WFN_scramble_60.jpg,imgJS/WFN_scramble_8.jpg,imgJS/WFN_scramble_50.jpg,imgJS/WFN_scramble_38.jpg,imgJS/WFN_scramble_33.jpg,imgJS/WFN_scramble_38.jpg,imgJS/WFN_60.jpg,imgJS/WFN_scramble_47.jpg,imgJS/WMF_2.jpg,imgJS/WFN_;999;999;rsvp_img_15;1;19;2;6;1;7;2;9;1;rsvp_flux;227;320447;0.0-227.0;8651065;06/05/2020 14:25
607.75000008289;"<div style=""font-size:20px;""><p> Avez-vous vu au moins un homme? </p><p> <strong> Oui [O] / Non [N] </strong></p> </div>";999;79;rsvpAnswHom;1;19;2;6;1;7;2;9;1;html-keyboard-response;228;321057;0.0-228.0;8651065;06/05/2020 14:25
999;999;999;999;fullscreenExp;999;999;999;999;999;999;999;999;999;fullscreen;229;321096;0.0-229.0;8651065;06/05/2020 14:25
999;fixation_cross;999;999;fixation;1;20;2;5;1;7;3;9;1;html-keyboard-response;230;322100;0.0-230.0;8651065;06/05/2020 14:25
999;imgJS/WMN_scramble_53.jpg,imgJS/WMN_scramble_75.jpg,imgJS/WMN_scramble_51.jpg,imgJS/WMN_scramble_40.jpg,imgJS/WMN_scramble_24.jpg,imgJS/WMN_scramble_19.jpg,imgJS/WMN_scramble_75.jpg,imgJS/WMN_37.jpg,imgJS/WMN_scramble_85.jpg,imgJS/WMF_2.jpg,imgJS/WMN;999;999;rsvp_img_15;1;20;2;5;1;7;3;9;1;rsvp_flux;231;323154;0.0-231.0;8651065;06/05/2020 14:25
1220.4599999823;"<div style=""font-size:20px;""><p> Avez-vous vu au moins une femme? </p><p> <strong> Oui [O] / Non [N] </strong></p> </div>";999;79;rsvpAnswFem;1;20;2;5;1;7;3;9;1;html-keyboard-response;232;324378;0.0-232.0;8651065;06/05/2020 14:25
999;999;999;999;fullscreenExp;999;999;999;999;999;999;999;999;999;fullscreen;233;324423;0.0-233.0;8651065;06/05/2020 14:25
999;fixation_cross;999;999;fixation;1;21;2;6;1;8;2;10;0;html-keyboard-response;234;325428;0.0-234.0;8651065;06/05/2020 14:25
999;imgJS/WFN_scramble_12.jpg,imgJS/WFN_scramble_30.jpg,imgJS/WFN_scramble_13.jpg,imgJS/WFN_scramble_81.jpg,imgJS/WFN_scramble_31.jpg,imgJS/WFN_scramble_22.jpg,imgJS/WFN_scramble_49.jpg,imgJS/WFN_scramble_8.jpg,imgJS/WFN_8.jpg,imgJS/WFN_scramble_62.jpg,i;999;999;rsvp_img_15;1;21;2;6;1;8;2;10;0;rsvp_flux;235;326481;0.0-235.0;8651065;06/05/2020 14:25
1035.8599999454;"<div style=""font-size:20px;""><p> Avez-vous vu au moins un homme? </p><p> <strong> Oui [O] / Non [N] </strong></p> </div>";999;78;rsvpAnswHom;1;21;2;6;1;8;2;10;0;html-keyboard-response;236;327520;0.0-236.0;8651065;06/05/2020 14:25
999;999;999;999;fullscreenExp;999;999;999;999;999;999;999;999;999;fullscreen;237;327563;0.0-237.0;8651065;06/05/2020 14:25
999;fixation_cross;999;999;fixation;1;22;2;3;1;5;3;9;2;html-keyboard-response;238;328567;0.0-238.0;8651065;06/05/2020 14:25
999;imgJS/WMN_scramble_36.jpg,imgJS/WMN_scramble_66.jpg,imgJS/WMN_scramble_72.jpg,imgJS/WMN_scramble_30.jpg,imgJS/WMN_scramble_85.jpg,imgJS/WMN_88.jpg,imgJS/WMN_scramble_65.jpg,imgJS/WMN_scramble_42.jpg,imgJS/WMN_scramble_4.jpg,imgJS/WFN_24.jpg,imgJS/WMN;999;999;rsvp_img_15;1;22;2;3;1;5;3;9;2;rsvp_flux;239;329622;0.0-239.0;8651065;06/05/2020 14:25
856.40000004787;"<div style=""font-size:20px;""><p> Avez-vous vu au moins une femme? </p><p> <strong> Oui [O] / Non [N] </strong></p> </div>";999;79;rsvpAnswFem;1;22;2;3;1;5;3;9;2;html-keyboard-response;240;330481;0.0-240.0;8651065;06/05/2020 14:25
999;999;999;999;fullscreenExp;999;999;999;999;999;999;999;999;999;fullscreen;241;330521;0.0-241.0;8651065;06/05/2020 14:25
999;fixation_cross;999;999;fixation;1;23;2;5;1;6;3;8;1;html-keyboard-response;242;331525;0.0-242.0;8651065;06/05/2020 14:25
999;imgJS/WMN_scramble_38.jpg,imgJS/WMN_scramble_69.jpg,imgJS/WMN_scramble_86.jpg,imgJS/WMN_scramble_55.jpg,imgJS/WMN_scramble_40.jpg,imgJS/WMN_scramble_27.jpg,imgJS/WMN_41.jpg,imgJS/WMN_scramble_68.jpg,imgJS/WMF_25.jpg,imgJS/WMN_scramble_35.jpg,imgJS/WM;999;999;rsvp_img_15;1;23;2;5;1;6;3;8;1;rsvp_flux;243;332580;0.0-243.0;8651065;06/05/2020 14:25
806.27000005916;"<div style=""font-size:20px;""><p> Avez-vous vu au moins une femme? </p><p> <strong> Oui [O] / Non [N] </strong></p> </div>";999;78;rsvpAnswFem;1;23;2;5;1;6;3;8;1;html-keyboard-response;244;333390;0.0-244.0;8651065;06/05/2020 14:25
999;999;999;999;fullscreenExp;999;999;999;999;999;999;999;999;999;fullscreen;245;333433;0.0-245.0;8651065;06/05/2020 14:25
999;instructions/instructionsDiapo/Slide10.jpg;999;999;instrCondi;2;999;NULL;NULL;1;999;999;999;999;image-keyboard-response;246;337465;0.0-246.0;8651065;06/05/2020 14:25
999;fixation_cross;999;999;fixation;2;0;2;6;1;4;2;6;0;html-keyboard-response;247;338469;0.0-247.0;8651065;06/05/2020 14:25
999;imgJS/WFN_scramble_56.jpg,imgJS/WFN_scramble_36.jpg,imgJS/WFN_scramble_32.jpg,imgJS/WFN_scramble_61.jpg,imgJS/WFN_17.jpg,imgJS/WFN_scramble_79.jpg,imgJS/WFF_31.jpg,imgJS/WFN_scramble_16.jpg,imgJS/WFN_scramble_53.jpg,imgJS/WFN_scramble_63.jpg,imgJS/WF;999;999;rsvp_img_15;2;0;2;6;1;4;2;6;0;rsvp_flux;248;339524;0.0-248.0;8651065;06/05/2020 14:25
761.90500007942;"<div style=""font-size:20px;""><p> Avez-vous vu au moins un homme? </p><p> <strong> Oui [O] / Non [N] </strong></p> </div>";999;78;rsvpAnswHom;2;0;2;6;1;4;2;6;0;html-keyboard-response;249;340289;0.0-249.0;8651065;06/05/2020 14:25
999;999;999;999;fullscreenExp;999;999;999;999;999;999;999;999;999;fullscreen;250;340336;0.0-250.0;8651065;06/05/2020 14:25
999;fixation_cross;999;999;fixation;2;1;2;6;1;4;2;6;0;html-keyboard-response;251;341341;0.0-251.0;8651065;06/05/2020 14:25
999;imgJS/WFN_scramble_54.jpg,imgJS/WFN_scramble_23.jpg,imgJS/WFN_scramble_34.jpg,imgJS/WFN_scramble_70.jpg,imgJS/WFN_41.jpg,imgJS/WFN_scramble_69.jpg,imgJS/WFF_21.jpg,imgJS/WFN_scramble_26.jpg,imgJS/WFN_scramble_44.jpg,imgJS/WFN_scramble_22.jpg,imgJS/WF;999;999;rsvp_img_15;2;1;2;6;1;4;2;6;0;rsvp_flux;252;342394;0.0-252.0;8651065;06/05/2020 14:25
853.14999998081;"<div style=""font-size:20px;""><p> Avez-vous vu au moins un homme? </p><p> <strong> Oui [O] / Non [N] </strong></p> </div>";999;78;rsvpAnswHom;2;1;2;6;1;4;2;6;0;html-keyboard-response;253;343251;0.0-253.0;8651065;06/05/2020 14:25
999;999;999;999;fullscreenExp;999;999;999;999;999;999;999;999;999;fullscreen;254;343292;0.0-254.0;8651065;06/05/2020 14:25
999;fixation_cross;999;999;fixation;2;2;2;3;1;4;3;6;2;html-keyboard-response;255;344296;0.0-255.0;8651065;06/05/2020 14:25
999;imgJS/WMN_scramble_63.jpg,imgJS/WMN_scramble_55.jpg,imgJS/WMN_scramble_46.jpg,imgJS/WMN_scramble_23.jpg,imgJS/WMN_74.jpg,imgJS/WMN_scramble_6.jpg,imgJS/WFN_9.jpg,imgJS/WMN_scramble_27.jpg,imgJS/WMN_scramble_7.jpg,imgJS/WMN_scramble_36.jpg,imgJS/WMN_s;999;999;rsvp_img_15;2;2;2;3;1;4;3;6;2;rsvp_flux;256;345349;0.0-256.0;8651065;06/05/2020 14:25
564.78500005323;"<div style=""font-size:20px;""><p> Avez-vous vu au moins une femme? </p><p> <strong> Oui [O] / Non [N] </strong></p> </div>";999;78;rsvpAnswFem;2;2;2;3;1;4;3;6;2;html-keyboard-response;257;345918;0.0-257.0;8651065;06/05/2020 14:25
999;999;999;999;fullscreenExp;999;999;999;999;999;999;999;999;999;fullscreen;258;345957;0.0-258.0;8651065;06/05/2020 14:25
999;fixation_cross;999;999;fixation;2;3;2;5;1;8;3;12;0;html-keyboard-response;259;346961;0.0-259.0;8651065;06/05/2020 14:25
999;imgJS/WMN_scramble_66.jpg,imgJS/WMN_scramble_62.jpg,imgJS/WMN_scramble_21.jpg,imgJS/WMN_scramble_5.jpg,imgJS/WMN_scramble_81.jpg,imgJS/WMN_scramble_82.jpg,imgJS/WMN_scramble_90.jpg,imgJS/WMN_scramble_25.jpg,imgJS/WMN_13.jpg,imgJS/WMN_scramble_15.jpg,;999;999;rsvp_img_15;2;3;2;5;1;8;3;12;0;rsvp_flux;260;348015;0.0-260.0;8651065;06/05/2020 14:25
557.43000004441;"<div style=""font-size:20px;""><p> Avez-vous vu au moins une femme? </p><p> <strong> Oui [O] / Non [N] </strong></p> </div>";999;79;rsvpAnswFem;2;3;2;5;1;8;3;12;0;html-keyboard-response;261;348575;0.0-261.0;8651065;06/05/2020 14:25
999;999;999;999;fullscreenExp;999;999;999;999;999;999;999;999;999;fullscreen;262;348616;0.0-262.0;8651065;06/05/2020 14:25
999;fixation_cross;999;999;fixation;2;4;2;6;1;8;2;12;1;html-keyboard-response;263;349620;0.0-263.0;8651065;06/05/2020 14:25
999;imgJS/WFN_scramble_15.jpg,imgJS/WFN_scramble_83.jpg,imgJS/WFN_scramble_41.jpg,imgJS/WFN_scramble_10.jpg,imgJS/WFN_scramble_25.jpg,imgJS/WFN_scramble_40.jpg,imgJS/WFN_scramble_39.jpg,imgJS/WFN_scramble_42.jpg,imgJS/WFN_72.jpg,imgJS/WFN_scramble_79.jpg;999;999;rsvp_img_15;2;4;2;6;1;8;2;12;1;rsvp_flux;264;350674;0.0-264.0;8651065;06/05/2020 14:25
660.96500004642;"<div style=""font-size:20px;""><p> Avez-vous vu au moins un homme? </p><p> <strong> Oui [O] / Non [N] </strong></p> </div>";999;78;rsvpAnswHom;2;4;2;6;1;8;2;12;1;html-keyboard-response;265;351344;0.0-265.0;8651065;06/05/2020 14:25
999;999;999;999;fullscreenExp;999;999;999;999;999;999;999;999;999;fullscreen;266;351384;0.0-266.0;8651065;06/05/2020 14:25
999;fixation_cross;999;999;fixation;2;5;2;6;1;5;2;7;1;html-keyboard-response;267;352389;0.0-267.0;8651065;06/05/2020 14:25
999;imgJS/WFN_scramble_17.jpg,imgJS/WFN_scramble_44.jpg,imgJS/WFN_scramble_8.jpg,imgJS/WFN_scramble_39.jpg,imgJS/WFN_scramble_61.jpg,imgJS/WFN_52.jpg,imgJS/WFN_scramble_61.jpg,imgJS/WMF_4.jpg,imgJS/WFN_scramble_56.jpg,imgJS/WFN_scramble_6.jpg,imgJS/WFN_s;999;999;rsvp_img_15;2;5;2;6;1;5;2;7;1;rsvp_flux;268;353443;0.0-268.0;8651065;06/05/2020 14:25
475.24999990128;"<div style=""font-size:20px;""><p> Avez-vous vu au moins un homme? </p><p> <strong> Oui [O] / Non [N] </strong></p> </div>";999;78;rsvpAnswHom;2;5;2;6;1;5;2;7;1;html-keyboard-response;269;353921;0.0-269.0;8651065;06/05/2020 14:25
999;999;999;999;fullscreenExp;999;999;999;999;999;999;999;999;999;fullscreen;270;353962;0.0-270.0;8651065;06/05/2020 14:25
999;fixation_cross;999;999;fixation;2;6;2;3;1;4;3;8;3;html-keyboard-response;271;354966;0.0-271.0;8651065;06/05/2020 14:25
999;imgJS/WMN_scramble_31.jpg,imgJS/WMN_scramble_77.jpg,imgJS/WMN_scramble_21.jpg,imgJS/WMN_scramble_86.jpg,imgJS/WMN_71.jpg,imgJS/WMN_scramble_27.jpg,imgJS/WMN_scramble_87.jpg,imgJS/WMN_scramble_46.jpg,imgJS/WMN_33.jpg,imgJS/WMN_scramble_85.jpg,imgJS/WM;999;999;rsvp_img_15;2;6;2;3;1;4;3;8;3;rsvp_flux;272;356021;0.0-272.0;8651065;06/05/2020 14:25
629.90000005811;"<div style=""font-size:20px;""><p> Avez-vous vu au moins une femme? </p><p> <strong> Oui [O] / Non [N] </strong></p> </div>";999;78;rsvpAnswFem;2;6;2;3;1;4;3;8;3;html-keyboard-response;273;356653;0.0-273.0;8651065;06/05/2020 14:25
999;999;999;999;fullscreenExp;999;999;999;999;999;999;999;999;999;fullscreen;274;356698;0.0-274.0;8651065;06/05/2020 14:25
999;fixation_cross;999;999;fixation;2;7;2;6;1;8;2;10;0;html-keyboard-response;275;357702;0.0-275.0;8651065;06/05/2020 14:25
999;imgJS/WFN_scramble_53.jpg,imgJS/WFN_scramble_32.jpg,imgJS/WFN_scramble_29.jpg,imgJS/WFN_scramble_68.jpg,imgJS/WFN_scramble_83.jpg,imgJS/WFN_scramble_74.jpg,imgJS/WFN_scramble_68.jpg,imgJS/WFN_scramble_31.jpg,imgJS/WFN_76.jpg,imgJS/WFN_scramble_36.jpg;999;999;rsvp_img_15;2;7;2;6;1;8;2;10;0;rsvp_flux;276;358757;0.0-276.0;8651065;06/05/2020 14:25
1351.8399999011;"<div style=""font-size:20px;""><p> Avez-vous vu au moins un homme? </p><p> <strong> Oui [O] / Non [N] </strong></p> </div>";999;78;rsvpAnswHom;2;7;2;6;1;8;2;10;0;html-keyboard-response;277;360111;0.0-277.0;8651065;06/05/2020 14:25
999;999;999;999;fullscreenExp;999;999;999;999;999;999;999;999;999;fullscreen;278;360159;0.0-278.0;8651065;06/05/2020 14:25
999;fixation_cross;999;999;fixation;2;8;2;5;1;8;3;12;0;html-keyboard-response;279;361164;0.0-279.0;8651065;06/05/2020 14:25
999;imgJS/WMN_scramble_24.jpg,imgJS/WMN_scramble_28.jpg,imgJS/WMN_scramble_33.jpg,imgJS/WMN_scramble_4.jpg,imgJS/WMN_scramble_58.jpg,imgJS/WMN_scramble_83.jpg,imgJS/WMN_scramble_82.jpg,imgJS/WMN_scramble_49.jpg,imgJS/WMN_14.jpg,imgJS/WMN_scramble_50.jpg,;999;999;rsvp_img_15;2;8;2;5;1;8;3;12;0;rsvp_flux;280;362217;0.0-280.0;8651065;06/05/2020 14:25
558.12000005972;"<div style=""font-size:20px;""><p> Avez-vous vu au moins une femme? </p><p> <strong> Oui [O] / Non [N] </strong></p> </div>";999;79;rsvpAnswFem;2;8;2;5;1;8;3;12;0;html-keyboard-response;281;362778;0.0-281.0;8651065;06/05/2020 14:25
999;999;999;999;fullscreenExp;999;999;999;999;999;999;999;999;999;fullscreen;282;362817;0.0-282.0;8651065;06/05/2020 14:25
999;fixation_cross;999;999;fixation;2;9;2;3;1;6;1;8;0;html-keyboard-response;283;363822;0.0-283.0;8651065;06/05/2020 14:25
999;imgJS/WMF_scramble_20.jpg,imgJS/WMF_scramble_5.jpg,imgJS/WMF_scramble_14.jpg,imgJS/WMF_scramble_6.jpg,imgJS/WMF_scramble_15.jpg,imgJS/WMF_scramble_3.jpg,imgJS/WMF_4.jpg,imgJS/WMF_scramble_22.jpg,imgJS/WFF_24.jpg,imgJS/WMF_scramble_19.jpg,imgJS/WMF_sc;999;999;rsvp_img_15;2;9;2;3;1;6;1;8;0;rsvp_flux;284;364875;0.0-284.0;8651065;06/05/2020 14:25
470.68999998737;"<div style=""font-size:20px;""><p> Avez-vous vu au moins une femme? </p><p> <strong> Oui [O] / Non [N] </strong></p> </div>";999;79;rsvpAnswFem;2;9;2;3;1;6;1;8;0;html-keyboard-response;285;365349;0.0-285.0;8651065;06/05/2020 14:25
999;999;999;999;fullscreenExp;999;999;999;999;999;999;999;999;999;fullscreen;286;365392;0.0-286.0;8651065;06/05/2020 14:25
999;fixation_cross;999;999;fixation;2;10;2;5;1;7;3;11;0;html-keyboard-response;287;366398;0.0-287.0;8651065;06/05/2020 14:25
999;imgJS/WMN_scramble_69.jpg,imgJS/WMN_scramble_65.jpg,imgJS/WMN_scramble_15.jpg,imgJS/WMN_scramble_42.jpg,imgJS/WMN_scramble_18.jpg,imgJS/WMN_scramble_3.jpg,imgJS/WMN_scramble_53.jpg,imgJS/WMN_55.jpg,imgJS/WMN_scramble_90.jpg,imgJS/WMN_scramble_30.jpg,;999;999;rsvp_img_15;2;10;2;5;1;7;3;11;0;rsvp_flux;288;367452;0.0-288.0;8651065;06/05/2020 14:25
379.73499996588;"<div style=""font-size:20px;""><p> Avez-vous vu au moins une femme? </p><p> <strong> Oui [O] / Non [N] </strong></p> </div>";999;79;rsvpAnswFem;2;10;2;5;1;7;3;11;0;html-keyboard-response;289;367834;0.0-289.0;8651065;06/05/2020 14:25
999;999;999;999;fullscreenExp;999;999;999;999;999;999;999;999;999;fullscreen;290;367875;0.0-290.0;8651065;06/05/2020 14:25
999;fixation_cross;999;999;fixation;2;11;2;5;1;6;3;10;0;html-keyboard-response;291;368879;0.0-291.0;8651065;06/05/2020 14:25
999;imgJS/WMN_scramble_48.jpg,imgJS/WMN_scramble_19.jpg,imgJS/WMN_scramble_11.jpg,imgJS/WMN_scramble_43.jpg,imgJS/WMN_scramble_66.jpg,imgJS/WMN_scramble_15.jpg,imgJS/WMN_48.jpg,imgJS/WMN_scramble_76.jpg,imgJS/WMN_scramble_41.jpg,imgJS/WMN_scramble_18.jpg;999;999;rsvp_img_15;2;11;2;5;1;6;3;10;0;rsvp_flux;292;369933;0.0-292.0;8651065;06/05/2020 14:25
502.86000000779;"<div style=""font-size:20px;""><p> Avez-vous vu au moins une femme? </p><p> <strong> Oui [O] / Non [N] </strong></p> </div>";999;79;rsvpAnswFem;2;11;2;5;1;6;3;10;0;html-keyboard-response;293;370439;0.0-293.0;8651065;06/05/2020 14:25
999;999;999;999;fullscreenExp;999;999;999;999;999;999;999;999;999;fullscreen;294;370481;0.0-294.0;8651065;06/05/2020 14:25
999;fixation_cross;999;999;fixation;2;12;2;5;1;7;3;11;1;html-keyboard-response;295;371485;0.0-295.0;8651065;06/05/2020 14:25
999;imgJS/WMN_scramble_28.jpg,imgJS/WMN_scramble_17.jpg,imgJS/WMN_scramble_14.jpg,imgJS/WMN_scramble_16.jpg,imgJS/WMN_scramble_58.jpg,imgJS/WMN_scramble_32.jpg,imgJS/WMN_scramble_37.jpg,imgJS/WMN_60.jpg,imgJS/WMN_scramble_80.jpg,imgJS/WMN_scramble_84.jpg;999;999;rsvp_img_15;2;12;2;5;1;7;3;11;1;rsvp_flux;296;372538;0.0-296.0;8651065;06/05/2020 14:25
542.14999999385;"<div style=""font-size:20px;""><p> Avez-vous vu au moins une femme? </p><p> <strong> Oui [O] / Non [N] </strong></p> </div>";999;79;rsvpAnswFem;2;12;2;5;1;7;3;11;1;html-keyboard-response;297;373083;0.0-297.0;8651065;06/05/2020 14:25
999;999;999;999;fullscreenExp;999;999;999;999;999;999;999;999;999;fullscreen;298;373122;0.0-298.0;8651065;06/05/2020 14:25
999;fixation_cross;999;999;fixation;2;13;2;4;1;5;0;9;0;html-keyboard-response;299;374128;0.0-299.0;8651065;06/05/2020 14:25
999;imgJS/WFF_scramble_4.jpg,imgJS/WFF_scramble_9.jpg,imgJS/WFF_scramble_17.jpg,imgJS/WFF_scramble_13.jpg,imgJS/WFF_scramble_29.jpg,imgJS/WFF_34.jpg,imgJS/WFF_scramble_34.jpg,imgJS/WFF_scramble_34.jpg,imgJS/WFF_scramble_17.jpg,imgJS/WFF_7.jpg,imgJS/WFF_s;999;999;rsvp_img_15;2;13;2;4;1;5;0;9;0;rsvp_flux;300;375181;0.0-300.0;8651065;06/05/2020 14:25
669.31499994826;"<div style=""font-size:20px;""><p> Avez-vous vu au moins un homme? </p><p> <strong> Oui [O] / Non [N] </strong></p> </div>";999;79;rsvpAnswHom;2;13;2;4;1;5;0;9;0;html-keyboard-response;301;375853;0.0-301.0;8651065;06/05/2020 14:25
999;999;999;999;fullscreenExp;999;999;999;999;999;999;999;999;999;fullscreen;302;375892;0.0-302.0;8651065;06/05/2020 14:25
999;fixation_cross;999;999;fixation;2;14;2;4;1;5;2;9;2;html-keyboard-response;303;376897;0.0-303.0;8651065;06/05/2020 14:25
999;imgJS/WFN_scramble_56.jpg,imgJS/WFN_scramble_12.jpg,imgJS/WFN_scramble_36.jpg,imgJS/WFN_scramble_35.jpg,imgJS/WFN_scramble_64.jpg,imgJS/WFN_18.jpg,imgJS/WFN_scramble_35.jpg,imgJS/WFN_scramble_70.jpg,imgJS/WFN_scramble_51.jpg,imgJS/WFN_85.jpg,imgJS/WF;999;999;rsvp_img_15;2;14;2;4;1;5;2;9;2;rsvp_flux;304;377951;0.0-304.0;8651065;06/05/2020 14:25
1124.4099999312;"<div style=""font-size:20px;""><p> Avez-vous vu au moins un homme? </p><p> <strong> Oui [O] / Non [N] </strong></p> </div>";999;78;rsvpAnswHom;2;14;2;4;1;5;2;9;2;html-keyboard-response;305;379079;0.0-305.0;8651065;06/05/2020 14:25
999;999;999;999;fullscreenExp;999;999;999;999;999;999;999;999;999;fullscreen;306;379128;0.0-306.0;8651065;06/05/2020 14:25
999;fixation_cross;999;999;fixation;2;15;2;5;1;5;3;7;0;html-keyboard-response;307;380134;0.0-307.0;8651065;06/05/2020 14:25
999;imgJS/WMN_scramble_34.jpg,imgJS/WMN_scramble_47.jpg,imgJS/WMN_scramble_8.jpg,imgJS/WMN_scramble_83.jpg,imgJS/WMN_scramble_49.jpg,imgJS/WMN_58.jpg,imgJS/WMN_scramble_69.jpg,imgJS/WFF_16.jpg,imgJS/WMN_scramble_10.jpg,imgJS/WMN_scramble_34.jpg,imgJS/WMN;999;999;rsvp_img_15;2;15;2;5;1;5;3;7;0;rsvp_flux;308;381188;0.0-308.0;8651065;06/05/2020 14:25
176.39999999665;"<div style=""font-size:20px;""><p> Avez-vous vu au moins une femme? </p><p> <strong> Oui [O] / Non [N] </strong></p> </div>";999;79;rsvpAnswFem;2;15;2;5;1;5;3;7;0;html-keyboard-response;309;381367;0.0-309.0;8651065;06/05/2020 14:25
999;999;999;999;fullscreenExp;999;999;999;999;999;999;999;999;999;fullscreen;310;381415;0.0-310.0;8651065;06/05/2020 14:25
999;fixation_cross;999;999;fixation;2;16;2;5;1;8;3;10;0;html-keyboard-response;311;382420;0.0-311.0;8651065;06/05/2020 14:25
999;imgJS/WMN_scramble_32.jpg,imgJS/WMN_scramble_82.jpg,imgJS/WMN_scramble_61.jpg,imgJS/WMN_scramble_9.jpg,imgJS/WMN_scramble_35.jpg,imgJS/WMN_scramble_61.jpg,imgJS/WMN_scramble_62.jpg,imgJS/WMN_scramble_59.jpg,imgJS/WMN_66.jpg,imgJS/WMN_scramble_44.jpg,;999;999;rsvp_img_15;2;16;2;5;1;8;3;10;0;rsvp_flux;312;383474;0.0-312.0;8651065;06/05/2020 14:25
547.44999995455;"<div style=""font-size:20px;""><p> Avez-vous vu au moins une femme? </p><p> <strong> Oui [O] / Non [N] </strong></p> </div>";999;79;rsvpAnswFem;2;16;2;5;1;8;3;10;0;html-keyboard-response;313;384024;0.0-313.0;8651065;06/05/2020 14:25
999;999;999;999;fullscreenExp;999;999;999;999;999;999;999;999;999;fullscreen;314;384069;0.0-314.0;8651065;06/05/2020 14:25
999;fixation_cross;999;999;fixation;2;17;2;3;1;6;3;8;3;html-keyboard-response;315;385073;0.0-315.0;8651065;06/05/2020 14:25
999;imgJS/WMN_scramble_30.jpg,imgJS/WMN_scramble_13.jpg,imgJS/WMN_scramble_52.jpg,imgJS/WMN_scramble_49.jpg,imgJS/WMN_scramble_39.jpg,imgJS/WMN_scramble_71.jpg,imgJS/WMN_66.jpg,imgJS/WMN_scramble_74.jpg,imgJS/WMN_44.jpg,imgJS/WMN_scramble_70.jpg,imgJS/WM;999;999;rsvp_img_15;2;17;2;3;1;6;3;8;3;rsvp_flux;316;386126;0.0-316.0;8651065;06/05/2020 14:25
649.92500003427;"<div style=""font-size:20px;""><p> Avez-vous vu au moins une femme? </p><p> <strong> Oui [O] / Non [N] </strong></p> </div>";999;78;rsvpAnswFem;2;17;2;3;1;6;3;8;3;html-keyboard-response;317;386779;0.0-317.0;8651065;06/05/2020 14:25
999;999;999;999;fullscreenExp;999;999;999;999;999;999;999;999;999;fullscreen;318;386826;0.0-318.0;8651065;06/05/2020 14:25
999;fixation_cross;999;999;fixation;2;18;2;5;1;5;3;9;0;html-keyboard-response;319;387831;0.0-319.0;8651065;06/05/2020 14:25
999;imgJS/WMN_scramble_29.jpg,imgJS/WMN_scramble_57.jpg,imgJS/WMN_scramble_27.jpg,imgJS/WMN_scramble_66.jpg,imgJS/WMN_scramble_35.jpg,imgJS/WMN_1.jpg,imgJS/WMN_scramble_11.jpg,imgJS/WMN_scramble_13.jpg,imgJS/WMN_scramble_68.jpg,imgJS/WFF_18.jpg,imgJS/WMN;999;999;rsvp_img_15;2;18;2;5;1;5;3;9;0;rsvp_flux;320;388886;0.0-320.0;8651065;06/05/2020 14:25
871.35000003036;"<div style=""font-size:20px;""><p> Avez-vous vu au moins une femme? </p><p> <strong> Oui [O] / Non [N] </strong></p> </div>";999;78;rsvpAnswFem;2;18;2;5;1;5;3;9;0;html-keyboard-response;321;389760;0.0-321.0;8651065;06/05/2020 14:25
999;999;999;999;fullscreenExp;999;999;999;999;999;999;999;999;999;fullscreen;322;389798;0.0-322.0;8651065;06/05/2020 14:25
999;fixation_cross;999;999;fixation;2;19;2;6;1;7;2;11;1;html-keyboard-response;323;390804;0.0-323.0;8651065;06/05/2020 14:25
999;imgJS/WFN_scramble_54.jpg,imgJS/WFN_scramble_43.jpg,imgJS/WFN_scramble_31.jpg,imgJS/WFN_scramble_47.jpg,imgJS/WFN_scramble_4.jpg,imgJS/WFN_scramble_9.jpg,imgJS/WFN_scramble_4.jpg,imgJS/WFN_5.jpg,imgJS/WFN_scramble_75.jpg,imgJS/WFN_scramble_35.jpg,img;999;999;rsvp_img_15;2;19;2;6;1;7;2;11;1;rsvp_flux;324;391858;0.0-324.0;8651065;06/05/2020 14:25
480.24499998428;"<div style=""font-size:20px;""><p> Avez-vous vu au moins un homme? </p><p> <strong> Oui [O] / Non [N] </strong></p> </div>";999;79;rsvpAnswHom;2;19;2;6;1;7;2;11;1;html-keyboard-response;325;392341;0.0-325.0;8651065;06/05/2020 14:25
999;999;999;999;fullscreenExp;999;999;999;999;999;999;999;999;999;fullscreen;326;392380;0.0-326.0;8651065;06/05/2020 14:25
999;fixation_cross;999;999;fixation;2;20;2;4;1;5;2;9;3;html-keyboard-response;327;393384;0.0-327.0;8651065;06/05/2020 14:25
999;imgJS/WFN_scramble_36.jpg,imgJS/WFN_scramble_9.jpg,imgJS/WFN_scramble_13.jpg,imgJS/WFN_scramble_36.jpg,imgJS/WFN_scramble_51.jpg,imgJS/WFN_69.jpg,imgJS/WFN_scramble_42.jpg,imgJS/WFN_scramble_70.jpg,imgJS/WFN_scramble_19.jpg,imgJS/WMN_90.jpg,imgJS/WFN;999;999;rsvp_img_15;2;20;2;4;1;5;2;9;3;rsvp_flux;328;394439;0.0-328.0;8651065;06/05/2020 14:25
699.03499993961;"<div style=""font-size:20px;""><p> Avez-vous vu au moins un homme? </p><p> <strong> Oui [O] / Non [N] </strong></p> </div>";999;79;rsvpAnswHom;2;20;2;4;1;5;2;9;3;html-keyboard-response;329;395141;0.0-329.0;8651065;06/05/2020 14:25
999;999;999;999;fullscreenExp;999;999;999;999;999;999;999;999;999;fullscreen;330;395188;0.0-330.0;8651065;06/05/2020 14:25
999;fixation_cross;999;999;fixation;2;21;2;4;1;7;2;9;2;html-keyboard-response;331;396193;0.0-331.0;8651065;06/05/2020 14:25
999;imgJS/WFN_scramble_60.jpg,imgJS/WFN_scramble_51.jpg,imgJS/WFN_scramble_38.jpg,imgJS/WFN_scramble_79.jpg,imgJS/WFN_scramble_20.jpg,imgJS/WFN_scramble_69.jpg,imgJS/WFN_scramble_29.jpg,imgJS/WFN_33.jpg,imgJS/WFN_scramble_34.jpg,imgJS/WFN_31.jpg,imgJS/WF;999;999;rsvp_img_15;2;21;2;4;1;7;2;9;2;rsvp_flux;332;397248;0.0-332.0;8651065;06/05/2020 14:25
1101.4399999985;"<div style=""font-size:20px;""><p> Avez-vous vu au moins un homme? </p><p> <strong> Oui [O] / Non [N] </strong></p> </div>";999;79;rsvpAnswHom;2;21;2;4;1;7;2;9;2;html-keyboard-response;333;398352;0.0-333.0;8651065;06/05/2020 14:25
999;999;999;999;fullscreenExp;999;999;999;999;999;999;999;999;999;fullscreen;334;398391;0.0-334.0;8651065;06/05/2020 14:25
999;fixation_cross;999;999;fixation;2;22;2;6;1;5;2;9;1;html-keyboard-response;335;399395;0.0-335.0;8651065;06/05/2020 14:25
999;imgJS/WFN_scramble_22.jpg,imgJS/WFN_scramble_36.jpg,imgJS/WFN_scramble_23.jpg,imgJS/WFN_scramble_62.jpg,imgJS/WFN_scramble_37.jpg,imgJS/WFN_19.jpg,imgJS/WFN_scramble_79.jpg,imgJS/WFN_scramble_76.jpg,imgJS/WFN_scramble_9.jpg,imgJS/WMF_8.jpg,imgJS/WFN_;999;999;rsvp_img_15;2;22;2;6;1;5;2;9;1;rsvp_flux;336;400449;0.0-336.0;8651065;06/05/2020 14:25
547.44999995455;"<div style=""font-size:20px;""><p> Avez-vous vu au moins un homme? </p><p> <strong> Oui [O] / Non [N] </strong></p> </div>";999;79;rsvpAnswHom;2;22;2;6;1;5;2;9;1;html-keyboard-response;337;400999;0.0-337.0;8651065;06/05/2020 14:25
999;999;999;999;fullscreenExp;999;999;999;999;999;999;999;999;999;fullscreen;338;401038;0.0-338.0;8651065;06/05/2020 14:25
999;fixation_cross;999;999;fixation;2;23;2;6;1;7;2;11;1;html-keyboard-response;339;402042;0.0-339.0;8651065;06/05/2020 14:25
999;imgJS/WFN_scramble_36.jpg,imgJS/WFN_scramble_36.jpg,imgJS/WFN_scramble_37.jpg,imgJS/WFN_scramble_42.jpg,imgJS/WFN_scramble_72.jpg,imgJS/WFN_scramble_80.jpg,imgJS/WFN_scramble_18.jpg,imgJS/WFN_8.jpg,imgJS/WFN_scramble_50.jpg,imgJS/WFN_scramble_18.jpg,;999;999;rsvp_img_15;2;23;2;6;1;7;2;11;1;rsvp_flux;340;403097;0.0-340.0;8651065;06/05/2020 14:25
303.16499993205;"<div style=""font-size:20px;""><p> Avez-vous vu au moins un homme? </p><p> <strong> Oui [O] / Non [N] </strong></p> </div>";999;79;rsvpAnswHom;2;23;2;6;1;7;2;11;1;html-keyboard-response;341;403403;0.0-341.0;8651065;06/05/2020 14:25
999;999;999;999;fullscreenExp;999;999;999;999;999;999;999;999;999;fullscreen;342;403443;0.0-342.0;8651065;06/05/2020 14:25
999;instructions/instructionsDiapo/Slide10.jpg;999;999;instrCondi;3;999;NULL;NULL;1;999;999;999;999;image-keyboard-response;343;406407;0.0-343.0;8651065;06/05/2020 14:25
999;fixation_cross;999;999;fixation;3;0;2;5;1;7;3;9;0;html-keyboard-response;344;407411;0.0-344.0;8651065;06/05/2020 14:25
999;imgJS/WMN_scramble_72.jpg,imgJS/WMN_scramble_20.jpg,imgJS/WMN_scramble_9.jpg,imgJS/WMN_scramble_55.jpg,imgJS/WMN_scramble_38.jpg,imgJS/WMN_scramble_11.jpg,imgJS/WMN_scramble_18.jpg,imgJS/WMN_57.jpg,imgJS/WMN_scramble_38.jpg,imgJS/WFF_13.jpg,imgJS/WMN;999;999;rsvp_img_15;3;0;2;5;1;7;3;9;0;rsvp_flux;345;408466;0.0-345.0;8651065;06/05/2020 14:25
578.27000005636;"<div style=""font-size:20px;""><p> Avez-vous vu au moins une femme? </p><p> <strong> Oui [O] / Non [N] </strong></p> </div>";999;79;rsvpAnswFem;3;0;2;5;1;7;3;9;0;html-keyboard-response;346;409047;0.0-346.0;8651065;06/05/2020 14:25
999;999;999;999;fullscreenExp;999;999;999;999;999;999;999;999;999;fullscreen;347;409085;0.0-347.0;8651065;06/05/2020 14:25
999;fixation_cross;999;999;fixation;3;1;2;4;1;5;2;9;2;html-keyboard-response;348;410090;0.0-348.0;8651065;06/05/2020 14:25
999;imgJS/WFN_scramble_2.jpg,imgJS/WFN_scramble_11.jpg,imgJS/WFN_scramble_1.jpg,imgJS/WFN_scramble_10.jpg,imgJS/WFN_scramble_85.jpg,imgJS/WFN_51.jpg,imgJS/WFN_scramble_59.jpg,imgJS/WFN_scramble_83.jpg,imgJS/WFN_scramble_32.jpg,imgJS/WFN_49.jpg,imgJS/WFN_;999;999;rsvp_img_15;3;1;2;4;1;5;2;9;2;rsvp_flux;349;411144;0.0-349.0;8651065;06/05/2020 14:25
704.16999992449;"<div style=""font-size:20px;""><p> Avez-vous vu au moins un homme? </p><p> <strong> Oui [O] / Non [N] </strong></p> </div>";999;79;rsvpAnswHom;3;1;2;4;1;5;2;9;2;html-keyboard-response;350;411851;0.0-350.0;8651065;06/05/2020 14:25
999;999;999;999;fullscreenExp;999;999;999;999;999;999;999;999;999;fullscreen;351;411889;0.0-351.0;8651065;06/05/2020 14:25
999;fixation_cross;999;999;fixation;3;2;2;6;1;8;2;12;0;html-keyboard-response;352;412893;0.0-352.0;8651065;06/05/2020 14:25
999;imgJS/WFN_scramble_75.jpg,imgJS/WFN_scramble_49.jpg,imgJS/WFN_scramble_40.jpg,imgJS/WFN_scramble_36.jpg,imgJS/WFN_scramble_52.jpg,imgJS/WFN_scramble_40.jpg,imgJS/WFN_scramble_52.jpg,imgJS/WFN_scramble_8.jpg,imgJS/WFN_49.jpg,imgJS/WFN_scramble_70.jpg,;999;999;rsvp_img_15;3;2;2;6;1;8;2;12;0;rsvp_flux;353;413947;0.0-353.0;8651065;06/05/2020 14:25
1281.7350000842;"<div style=""font-size:20px;""><p> Avez-vous vu au moins un homme? </p><p> <strong> Oui [O] / Non [N] </strong></p> </div>";999;78;rsvpAnswHom;3;2;2;6;1;8;2;12;0;html-keyboard-response;354;415231;0.0-354.0;8651065;06/05/2020 14:25
999;999;999;999;fullscreenExp;999;999;999;999;999;999;999;999;999;fullscreen;355;415272;0.0-355.0;8651065;06/05/2020 14:25
999;fixation_cross;999;999;fixation;3;3;2;5;1;4;3;8;1;html-keyboard-response;356;416277;0.0-356.0;8651065;06/05/2020 14:25
999;imgJS/WMN_scramble_90.jpg,imgJS/WMN_scramble_41.jpg,imgJS/WMN_scramble_5.jpg,imgJS/WMN_scramble_54.jpg,imgJS/WMN_7.jpg,imgJS/WMN_scramble_55.jpg,imgJS/WMN_scramble_89.jpg,imgJS/WMN_scramble_25.jpg,imgJS/WMF_22.jpg,imgJS/WMN_scramble_37.jpg,imgJS/WMN_;999;999;rsvp_img_15;3;3;2;5;1;4;3;8;1;rsvp_flux;357;417330;0.0-357.0;8651065;06/05/2020 14:25
705.65000001807;"<div style=""font-size:20px;""><p> Avez-vous vu au moins une femme? </p><p> <strong> Oui [O] / Non [N] </strong></p> </div>";999;78;rsvpAnswFem;3;3;2;5;1;4;3;8;1;html-keyboard-response;358;418038;0.0-358.0;8651065;06/05/2020 14:25
999;999;999;999;fullscreenExp;999;999;999;999;999;999;999;999;999;fullscreen;359;418083;0.0-359.0;8651065;06/05/2020 14:25
999;fixation_cross;999;999;fixation;3;4;2;6;1;4;2;8;1;html-keyboard-response;360;419088;0.0-360.0;8651065;06/05/2020 14:25
999;imgJS/WFN_scramble_63.jpg,imgJS/WFN_scramble_55.jpg,imgJS/WFN_scramble_18.jpg,imgJS/WFN_scramble_64.jpg,imgJS/WFN_58.jpg,imgJS/WFN_scramble_19.jpg,imgJS/WFN_scramble_83.jpg,imgJS/WFN_scramble_75.jpg,imgJS/WMF_12.jpg,imgJS/WFN_scramble_51.jpg,imgJS/WF;999;999;rsvp_img_15;3;4;2;6;1;4;2;8;1;rsvp_flux;361;420141;0.0-361.0;8651065;06/05/2020 14:25
828.22000002488;"<div style=""font-size:20px;""><p> Avez-vous vu au moins un homme? </p><p> <strong> Oui [O] / Non [N] </strong></p> </div>";999;79;rsvpAnswHom;3;4;2;6;1;4;2;8;1;html-keyboard-response;362;420973;0.0-362.0;8651065;06/05/2020 14:25
999;999;999;999;fullscreenExp;999;999;999;999;999;999;999;999;999;fullscreen;363;421015;0.0-363.0;8651065;06/05/2020 14:25
999;fixation_cross;999;999;fixation;3;5;2;3;1;8;1;10;1;html-keyboard-response;364;422020;0.0-364.0;8651065;06/05/2020 14:25
999;imgJS/WMF_scramble_11.jpg,imgJS/WMF_scramble_1.jpg,imgJS/WMF_scramble_20.jpg,imgJS/WMF_scramble_10.jpg,imgJS/WMF_scramble_4.jpg,imgJS/WMF_scramble_29.jpg,imgJS/WMF_scramble_9.jpg,imgJS/WMF_scramble_16.jpg,imgJS/WMF_8.jpg,imgJS/WMF_scramble_16.jpg,img;999;999;rsvp_img_15;3;5;2;3;1;8;1;10;1;rsvp_flux;365;423074;0.0-365.0;8651065;06/05/2020 14:25
698.6100000795;"<div style=""font-size:20px;""><p> Avez-vous vu au moins une femme? </p><p> <strong> Oui [O] / Non [N] </strong></p> </div>";999;78;rsvpAnswFem;3;5;2;3;1;8;1;10;1;html-keyboard-response;366;423775;0.0-366.0;8651065;06/05/2020 14:25
999;999;999;999;fullscreenExp;999;999;999;999;999;999;999;999;999;fullscreen;367;423818;0.0-367.0;8651065;06/05/2020 14:25
999;fixation_cross;999;999;fixation;3;6;2;6;1;4;2;8;1;html-keyboard-response;368;424823;0.0-368.0;8651065;06/05/2020 14:25
999;imgJS/WFN_scramble_38.jpg,imgJS/WFN_scramble_37.jpg,imgJS/WFN_scramble_55.jpg,imgJS/WFN_scramble_17.jpg,imgJS/WFN_68.jpg,imgJS/WFN_scramble_23.jpg,imgJS/WFN_scramble_77.jpg,imgJS/WFN_scramble_72.jpg,imgJS/WMF_13.jpg,imgJS/WFN_scramble_20.jpg,imgJS/WF;999;999;rsvp_img_15;3;6;2;6;1;4;2;8;1;rsvp_flux;369;425877;0.0-369.0;8651065;06/05/2020 14:25
1278.6349999951;"<div style=""font-size:20px;""><p> Avez-vous vu au moins un homme? </p><p> <strong> Oui [O] / Non [N] </strong></p> </div>";999;79;rsvpAnswHom;3;6;2;6;1;4;2;8;1;html-keyboard-response;370;427159;0.0-370.0;8651065;06/05/2020 14:25
999;999;999;999;fullscreenExp;999;999;999;999;999;999;999;999;999;fullscreen;371;427199;0.0-371.0;8651065;06/05/2020 14:25
999;fixation_cross;999;999;fixation;3;7;2;5;1;8;3;12;1;html-keyboard-response;372;428204;0.0-372.0;8651065;06/05/2020 14:25
999;imgJS/WMN_scramble_12.jpg,imgJS/WMN_scramble_43.jpg,imgJS/WMN_scramble_76.jpg,imgJS/WMN_scramble_67.jpg,imgJS/WMN_scramble_60.jpg,imgJS/WMN_scramble_18.jpg,imgJS/WMN_scramble_42.jpg,imgJS/WMN_scramble_34.jpg,imgJS/WMN_77.jpg,imgJS/WMN_scramble_83.jpg;999;999;rsvp_img_15;3;7;2;5;1;8;3;12;1;rsvp_flux;373;429257;0.0-373.0;8651065;06/05/2020 14:25
448.37500003632;"<div style=""font-size:20px;""><p> Avez-vous vu au moins une femme? </p><p> <strong> Oui [O] / Non [N] </strong></p> </div>";999;79;rsvpAnswFem;3;7;2;5;1;8;3;12;1;html-keyboard-response;374;429709;0.0-374.0;8651065;06/05/2020 14:25
999;999;999;999;fullscreenExp;999;999;999;999;999;999;999;999;999;fullscreen;375;429753;0.0-375.0;8651065;06/05/2020 14:25
999;fixation_cross;999;999;fixation;3;8;2;6;1;4;2;8;0;html-keyboard-response;376;430756;0.0-376.0;8651065;06/05/2020 14:25
999;imgJS/WFN_scramble_29.jpg,imgJS/WFN_scramble_6.jpg,imgJS/WFN_scramble_49.jpg,imgJS/WFN_scramble_64.jpg,imgJS/WFN_30.jpg,imgJS/WFN_scramble_43.jpg,imgJS/WFN_scramble_50.jpg,imgJS/WFN_scramble_38.jpg,imgJS/WFF_6.jpg,imgJS/WFN_scramble_45.jpg,imgJS/WFN_;999;999;rsvp_img_15;3;8;2;6;1;4;2;8;0;rsvp_flux;377;431811;0.0-377.0;8651065;06/05/2020 14:25
1862.6549999462;"<div style=""font-size:20px;""><p> Avez-vous vu au moins un homme? </p><p> <strong> Oui [O] / Non [N] </strong></p> </div>";999;78;rsvpAnswHom;3;8;2;6;1;4;2;8;0;html-keyboard-response;378;433676;0.0-378.0;8651065;06/05/2020 14:25
999;999;999;999;fullscreenExp;999;999;999;999;999;999;999;999;999;fullscreen;379;433718;0.0-379.0;8651065;06/05/2020 14:25
999;fixation_cross;999;999;fixation;3;9;2;4;1;7;0;9;1;html-keyboard-response;380;434724;0.0-380.0;8651065;06/05/2020 14:25
999;imgJS/WFF_scramble_30.jpg,imgJS/WFF_scramble_35.jpg,imgJS/WFF_scramble_16.jpg,imgJS/WFF_scramble_23.jpg,imgJS/WFF_scramble_23.jpg,imgJS/WFF_scramble_12.jpg,imgJS/WFF_scramble_4.jpg,imgJS/WFF_5.jpg,imgJS/WFF_scramble_5.jpg,imgJS/WMF_3.jpg,imgJS/WFF_sc;999;999;rsvp_img_15;3;9;2;4;1;7;0;9;1;rsvp_flux;381;435778;0.0-381.0;8651065;06/05/2020 14:25
784.17999995872;"<div style=""font-size:20px;""><p> Avez-vous vu au moins un homme? </p><p> <strong> Oui [O] / Non [N] </strong></p> </div>";999;79;rsvpAnswHom;3;9;2;4;1;7;0;9;1;html-keyboard-response;382;436565;0.0-382.0;8651065;06/05/2020 14:25
999;999;999;999;fullscreenExp;999;999;999;999;999;999;999;999;999;fullscreen;383;436603;0.0-383.0;8651065;06/05/2020 14:25
999;fixation_cross;999;999;fixation;3;10;2;5;1;7;3;9;0;html-keyboard-response;384;437606;0.0-384.0;8651065;06/05/2020 14:25
999;imgJS/WMN_scramble_44.jpg,imgJS/WMN_scramble_87.jpg,imgJS/WMN_scramble_20.jpg,imgJS/WMN_scramble_40.jpg,imgJS/WMN_scramble_83.jpg,imgJS/WMN_scramble_85.jpg,imgJS/WMN_scramble_8.jpg,imgJS/WMN_37.jpg,imgJS/WMN_scramble_48.jpg,imgJS/WFF_30.jpg,imgJS/WMN;999;999;rsvp_img_15;3;10;2;5;1;7;3;9;0;rsvp_flux;385;438662;0.0-385.0;8651065;06/05/2020 14:25
650.40000004228;"<div style=""font-size:20px;""><p> Avez-vous vu au moins une femme? </p><p> <strong> Oui [O] / Non [N] </strong></p> </div>";999;79;rsvpAnswFem;3;10;2;5;1;7;3;9;0;html-keyboard-response;386;439315;0.0-386.0;8651065;06/05/2020 14:25
999;999;999;999;fullscreenExp;999;999;999;999;999;999;999;999;999;fullscreen;387;439354;0.0-387.0;8651065;06/05/2020 14:25
999;fixation_cross;999;999;fixation;3;11;2;3;1;5;1;9;0;html-keyboard-response;388;440359;0.0-388.0;8651065;06/05/2020 14:25
999;imgJS/WMF_scramble_1.jpg,imgJS/WMF_scramble_29.jpg,imgJS/WMF_scramble_8.jpg,imgJS/WMF_scramble_8.jpg,imgJS/WMF_scramble_15.jpg,imgJS/WMF_1.jpg,imgJS/WMF_scramble_27.jpg,imgJS/WMF_scramble_3.jpg,imgJS/WMF_scramble_21.jpg,imgJS/WFF_24.jpg,imgJS/WMF_scr;999;999;rsvp_img_15;3;11;2;3;1;5;1;9;0;rsvp_flux;389;441413;0.0-389.0;8651065;06/05/2020 14:25
279.23999994528;"<div style=""font-size:20px;""><p> Avez-vous vu au moins une femme? </p><p> <strong> Oui [O] / Non [N] </strong></p> </div>";999;79;rsvpAnswFem;3;11;2;3;1;5;1;9;0;html-keyboard-response;390;441695;0.0-390.0;8651065;06/05/2020 14:25
999;999;999;999;fullscreenExp;999;999;999;999;999;999;999;999;999;fullscreen;391;441746;0.0-391.0;8651065;06/05/2020 14:25
999;fixation_cross;999;999;fixation;3;12;2;4;1;6;2;10;2;html-keyboard-response;392;442751;0.0-392.0;8651065;06/05/2020 14:25
999;imgJS/WFN_scramble_5.jpg,imgJS/WFN_scramble_81.jpg,imgJS/WFN_scramble_3.jpg,imgJS/WFN_scramble_7.jpg,imgJS/WFN_scramble_69.jpg,imgJS/WFN_scramble_28.jpg,imgJS/WFN_6.jpg,imgJS/WFN_scramble_3.jpg,imgJS/WFN_scramble_42.jpg,imgJS/WFN_scramble_80.jpg,imgJ;999;999;rsvp_img_15;3;12;2;4;1;6;2;10;2;rsvp_flux;393;443805;0.0-393.0;8651065;06/05/2020 14:25
1620.1199999778;"<div style=""font-size:20px;""><p> Avez-vous vu au moins un homme? </p><p> <strong> Oui [O] / Non [N] </strong></p> </div>";999;78;rsvpAnswHom;3;12;2;4;1;6;2;10;2;html-keyboard-response;394;445428;0.0-394.0;8651065;06/05/2020 14:25
999;999;999;999;fullscreenExp;999;999;999;999;999;999;999;999;999;fullscreen;395;445470;0.0-395.0;8651065;06/05/2020 14:25
999;fixation_cross;999;999;fixation;3;13;2;3;1;6;1;10;0;html-keyboard-response;396;446474;0.0-396.0;8651065;06/05/2020 14:25
999;imgJS/WMF_scramble_11.jpg,imgJS/WMF_scramble_25.jpg,imgJS/WMF_scramble_13.jpg,imgJS/WMF_scramble_8.jpg,imgJS/WMF_scramble_26.jpg,imgJS/WMF_scramble_11.jpg,imgJS/WMF_1.jpg,imgJS/WMF_scramble_11.jpg,imgJS/WMF_scramble_23.jpg,imgJS/WMF_scramble_8.jpg,im;999;999;rsvp_img_15;3;13;2;3;1;6;1;10;0;rsvp_flux;397;447527;0.0-397.0;8651065;06/05/2020 14:25
568.16500006244;"<div style=""font-size:20px;""><p> Avez-vous vu au moins une femme? </p><p> <strong> Oui [O] / Non [N] </strong></p> </div>";999;79;rsvpAnswFem;3;13;2;3;1;6;1;10;0;html-keyboard-response;398;448098;0.0-398.0;8651065;06/05/2020 14:25
999;999;999;999;fullscreenExp;999;999;999;999;999;999;999;999;999;fullscreen;399;448138;0.0-399.0;8651065;06/05/2020 14:25
999;fixation_cross;999;999;fixation;3;14;2;5;1;7;3;11;1;html-keyboard-response;400;449143;0.0-400.0;8651065;06/05/2020 14:25
999;imgJS/WMN_scramble_63.jpg,imgJS/WMN_scramble_60.jpg,imgJS/WMN_scramble_51.jpg,imgJS/WMN_scramble_81.jpg,imgJS/WMN_scramble_78.jpg,imgJS/WMN_scramble_38.jpg,imgJS/WMN_scramble_75.jpg,imgJS/WMN_1.jpg,imgJS/WMN_scramble_42.jpg,imgJS/WMN_scramble_3.jpg,i;999;999;rsvp_img_15;3;14;2;5;1;7;3;11;1;rsvp_flux;401;450197;0.0-401.0;8651065;06/05/2020 14:25
1137.555000023;"<div style=""font-size:20px;""><p> Avez-vous vu au moins une femme? </p><p> <strong> Oui [O] / Non [N] </strong></p> </div>";999;78;rsvpAnswFem;3;14;2;5;1;7;3;11;1;html-keyboard-response;402;451338;0.0-402.0;8651065;06/05/2020 14:25
999;999;999;999;fullscreenExp;999;999;999;999;999;999;999;999;999;fullscreen;403;451376;0.0-403.0;8651065;06/05/2020 14:25
999;fixation_cross;999;999;fixation;3;15;2;3;1;5;1;7;0;html-keyboard-response;404;452380;0.0-404.0;8651065;06/05/2020 14:25
999;imgJS/WMF_scramble_16.jpg,imgJS/WMF_scramble_6.jpg,imgJS/WMF_scramble_6.jpg,imgJS/WMF_scramble_20.jpg,imgJS/WMF_scramble_27.jpg,imgJS/WMF_1.jpg,imgJS/WMF_scramble_20.jpg,imgJS/WFF_8.jpg,imgJS/WMF_scramble_5.jpg,imgJS/WMF_scramble_25.jpg,imgJS/WMF_scr;999;999;rsvp_img_15;3;15;2;3;1;5;1;7;0;rsvp_flux;405;453434;0.0-405.0;8651065;06/05/2020 14:25
702.79999997001;"<div style=""font-size:20px;""><p> Avez-vous vu au moins une femme? </p><p> <strong> Oui [O] / Non [N] </strong></p> </div>";999;79;rsvpAnswFem;3;15;2;3;1;5;1;7;0;html-keyboard-response;406;454140;0.0-406.0;8651065;06/05/2020 14:25
999;999;999;999;fullscreenExp;999;999;999;999;999;999;999;999;999;fullscreen;407;454196;0.0-407.0;8651065;06/05/2020 14:25
999;fixation_cross;999;999;fixation;3;16;2;6;1;8;2;10;0;html-keyboard-response;408;455200;0.0-408.0;8651065;06/05/2020 14:25
999;imgJS/WFN_scramble_64.jpg,imgJS/WFN_scramble_21.jpg,imgJS/WFN_scramble_39.jpg,imgJS/WFN_scramble_85.jpg,imgJS/WFN_scramble_7.jpg,imgJS/WFN_scramble_26.jpg,imgJS/WFN_scramble_81.jpg,imgJS/WFN_scramble_17.jpg,imgJS/WFN_68.jpg,imgJS/WFN_scramble_5.jpg,i;999;999;rsvp_img_15;3;16;2;6;1;8;2;10;0;rsvp_flux;409;456255;0.0-409.0;8651065;06/05/2020 14:25
829.53999994788;"<div style=""font-size:20px;""><p> Avez-vous vu au moins un homme? </p><p> <strong> Oui [O] / Non [N] </strong></p> </div>";999;78;rsvpAnswHom;3;16;2;6;1;8;2;10;0;html-keyboard-response;410;457087;0.0-410.0;8651065;06/05/2020 14:25
999;999;999;999;fullscreenExp;999;999;999;999;999;999;999;999;999;fullscreen;411;457126;0.0-411.0;8651065;06/05/2020 14:25
999;fixation_cross;999;999;fixation;3;17;2;5;1;7;3;9;0;html-keyboard-response;412;458131;0.0-412.0;8651065;06/05/2020 14:25
999;imgJS/WMN_scramble_23.jpg,imgJS/WMN_scramble_46.jpg,imgJS/WMN_scramble_36.jpg,imgJS/WMN_scramble_57.jpg,imgJS/WMN_scramble_8.jpg,imgJS/WMN_scramble_67.jpg,imgJS/WMN_scramble_7.jpg,imgJS/WMN_76.jpg,imgJS/WMN_scramble_90.jpg,imgJS/WFF_28.jpg,imgJS/WMN_;999;999;rsvp_img_15;3;17;2;5;1;7;3;9;0;rsvp_flux;413;459185;0.0-413.0;8651065;06/05/2020 14:25
616.8399999151;"<div style=""font-size:20px;""><p> Avez-vous vu au moins une femme? </p><p> <strong> Oui [O] / Non [N] </strong></p> </div>";999;79;rsvpAnswFem;3;17;2;5;1;7;3;9;0;html-keyboard-response;414;459805;0.0-414.0;8651065;06/05/2020 14:25
999;999;999;999;fullscreenExp;999;999;999;999;999;999;999;999;999;fullscreen;415;459871;0.0-415.0;8651065;06/05/2020 14:25
999;fixation_cross;999;999;fixation;3;18;2;5;1;6;3;10;0;html-keyboard-response;416;460879;0.0-416.0;8651065;06/05/2020 14:25
999;imgJS/WMN_scramble_43.jpg,imgJS/WMN_scramble_8.jpg,imgJS/WMN_scramble_58.jpg,imgJS/WMN_scramble_43.jpg,imgJS/WMN_scramble_22.jpg,imgJS/WMN_scramble_11.jpg,imgJS/WMN_71.jpg,imgJS/WMN_scramble_66.jpg,imgJS/WMN_scramble_75.jpg,imgJS/WMN_scramble_60.jpg,;999;999;rsvp_img_15;3;18;2;5;1;6;3;10;0;rsvp_flux;417;461933;0.0-417.0;8651065;06/05/2020 14:25
1144.4449999835;"<div style=""font-size:20px;""><p> Avez-vous vu au moins une femme? </p><p> <strong> Oui [O] / Non [N] </strong></p> </div>";999;79;rsvpAnswFem;3;18;2;5;1;6;3;10;0;html-keyboard-response;418;463081;0.0-418.0;8651065;06/05/2020 14:25
999;999;999;999;fullscreenExp;999;999;999;999;999;999;999;999;999;fullscreen;419;463120;0.0-419.0;8651065;06/05/2020 14:25
999;fixation_cross;999;999;fixation;3;19;2;6;1;6;2;8;0;html-keyboard-response;420;464124;0.0-420.0;8651065;06/05/2020 14:25
999;imgJS/WFN_scramble_86.jpg,imgJS/WFN_scramble_5.jpg,imgJS/WFN_scramble_1.jpg,imgJS/WFN_scramble_63.jpg,imgJS/WFN_scramble_10.jpg,imgJS/WFN_scramble_19.jpg,imgJS/WFN_62.jpg,imgJS/WFN_scramble_8.jpg,imgJS/WFF_9.jpg,imgJS/WFN_scramble_56.jpg,imgJS/WFN_sc;999;999;rsvp_img_15;3;19;2;6;1;6;2;8;0;rsvp_flux;421;465178;0.0-421.0;8651065;06/05/2020 14:25
380.21500001196;"<div style=""font-size:20px;""><p> Avez-vous vu au moins un homme? </p><p> <strong> Oui [O] / Non [N] </strong></p> </div>";999;79;rsvpAnswHom;3;19;2;6;1;6;2;8;0;html-keyboard-response;422;465561;0.0-422.0;8651065;06/05/2020 14:25
999;999;999;999;fullscreenExp;999;999;999;999;999;999;999;999;999;fullscreen;423;465612;0.0-423.0;8651065;06/05/2020 14:25
999;fixation_cross;999;999;fixation;3;20;2;6;1;6;2;10;0;html-keyboard-response;424;466616;0.0-424.0;8651065;06/05/2020 14:25
999;imgJS/WFN_scramble_25.jpg,imgJS/WFN_scramble_21.jpg,imgJS/WFN_scramble_55.jpg,imgJS/WFN_scramble_64.jpg,imgJS/WFN_scramble_86.jpg,imgJS/WFN_scramble_40.jpg,imgJS/WFN_74.jpg,imgJS/WFN_scramble_30.jpg,imgJS/WFN_scramble_81.jpg,imgJS/WFN_scramble_74.jpg;999;999;rsvp_img_15;3;20;2;6;1;6;2;10;0;rsvp_flux;425;467670;0.0-425.0;8651065;06/05/2020 14:25
877.29499989655;"<div style=""font-size:20px;""><p> Avez-vous vu au moins un homme? </p><p> <strong> Oui [O] / Non [N] </strong></p> </div>";999;78;rsvpAnswHom;3;20;2;6;1;6;2;10;0;html-keyboard-response;426;468550;0.0-426.0;8651065;06/05/2020 14:25
999;999;999;999;fullscreenExp;999;999;999;999;999;999;999;999;999;fullscreen;427;468593;0.0-427.0;8651065;06/05/2020 14:25
999;fixation_cross;999;999;fixation;3;21;2;5;1;4;3;6;0;html-keyboard-response;428;469597;0.0-428.0;8651065;06/05/2020 14:25
999;imgJS/WMN_scramble_17.jpg,imgJS/WMN_scramble_17.jpg,imgJS/WMN_scramble_75.jpg,imgJS/WMN_scramble_3.jpg,imgJS/WMN_77.jpg,imgJS/WMN_scramble_14.jpg,imgJS/WFF_3.jpg,imgJS/WMN_scramble_77.jpg,imgJS/WMN_scramble_39.jpg,imgJS/WMN_scramble_30.jpg,imgJS/WMN_;999;999;rsvp_img_15;3;21;2;5;1;4;3;6;0;rsvp_flux;429;470651;0.0-429.0;8651065;06/05/2020 14:25
1484.9199999589;"<div style=""font-size:20px;""><p> Avez-vous vu au moins une femme? </p><p> <strong> Oui [O] / Non [N] </strong></p> </div>";999;79;rsvpAnswFem;3;21;2;5;1;4;3;6;0;html-keyboard-response;430;472138;0.0-430.0;8651065;06/05/2020 14:25
999;999;999;999;fullscreenExp;999;999;999;999;999;999;999;999;999;fullscreen;431;472176;0.0-431.0;8651065;06/05/2020 14:25
999;fixation_cross;999;999;fixation;3;22;2;6;1;7;2;9;0;html-keyboard-response;432;473181;0.0-432.0;8651065;06/05/2020 14:25
999;imgJS/WFN_scramble_84.jpg,imgJS/WFN_scramble_37.jpg,imgJS/WFN_scramble_86.jpg,imgJS/WFN_scramble_84.jpg,imgJS/WFN_scramble_77.jpg,imgJS/WFN_scramble_7.jpg,imgJS/WFN_scramble_45.jpg,imgJS/WFN_13.jpg,imgJS/WFN_scramble_52.jpg,imgJS/WFF_15.jpg,imgJS/WFN;999;999;rsvp_img_15;3;22;2;6;1;7;2;9;0;rsvp_flux;433;474235;0.0-433.0;8651065;06/05/2020 14:25
702.04499992542;"<div style=""font-size:20px;""><p> Avez-vous vu au moins un homme? </p><p> <strong> Oui [O] / Non [N] </strong></p> </div>";999;78;rsvpAnswHom;3;22;2;6;1;7;2;9;0;html-keyboard-response;434;474940;0.0-434.0;8651065;06/05/2020 14:25
999;999;999;999;fullscreenExp;999;999;999;999;999;999;999;999;999;fullscreen;435;474984;0.0-435.0;8651065;06/05/2020 14:25
999;fixation_cross;999;999;fixation;3;23;2;4;1;7;2;11;2;html-keyboard-response;436;475988;0.0-436.0;8651065;06/05/2020 14:25
999;imgJS/WFN_scramble_51.jpg,imgJS/WFN_scramble_28.jpg,imgJS/WFN_scramble_14.jpg,imgJS/WFN_scramble_82.jpg,imgJS/WFN_scramble_25.jpg,imgJS/WFN_scramble_66.jpg,imgJS/WFN_scramble_6.jpg,imgJS/WFN_2.jpg,imgJS/WFN_scramble_11.jpg,imgJS/WFN_scramble_38.jpg,i;999;999;rsvp_img_15;3;23;2;4;1;7;2;11;2;rsvp_flux;437;477042;0.0-437.0;8651065;06/05/2020 14:25
818.73499997891;"<div style=""font-size:20px;""><p> Avez-vous vu au moins un homme? </p><p> <strong> Oui [O] / Non [N] </strong></p> </div>";999;78;rsvpAnswHom;3;23;2;4;1;7;2;11;2;html-keyboard-response;438;477863;0.0-438.0;8651065;06/05/2020 14:25
999;999;999;999;fullscreenExp;999;999;999;999;999;999;999;999;999;fullscreen;439;477903;0.0-439.0;8651065;06/05/2020 14:25
999;instructions/instructionsDiapo/Slide8.jpg;999;999;instrCondi;4;999;NULL;NULL;1;999;999;999;999;image-keyboard-response;440;482155;0.0-440.0;8651065;06/05/2020 14:25
999;fixation_cross;999;999;fixation;4;0;1;3;1;7;1;11;0;html-keyboard-response;441;483158;0.0-441.0;8651065;06/05/2020 14:25
999;imgJS/WMF_scramble_28.jpg,imgJS/WMF_scramble_20.jpg,imgJS/WMF_scramble_16.jpg,imgJS/WMF_scramble_14.jpg,imgJS/WMF_scramble_14.jpg,imgJS/WMF_scramble_8.jpg,imgJS/WMF_scramble_5.jpg,imgJS/WMF_10.jpg,imgJS/WMF_scramble_2.jpg,imgJS/WMF_scramble_26.jpg,im;999;999;rsvp_img_15;4;0;1;3;1;7;1;11;0;rsvp_flux;442;484212;0.0-442.0;8651065;06/05/2020 14:25
1384.3950000592;"<div style=""font-size:20px;""><p> Avez-vous vu au moins une femme? </p><p> <strong> Oui [O] / Non [N] </strong></p> </div>";999;79;rsvpAnswFem;4;0;1;3;1;7;1;11;0;html-keyboard-response;443;485599;0.0-443.0;8651065;06/05/2020 14:25
999;999;999;999;fullscreenExp;999;999;999;999;999;999;999;999;999;fullscreen;444;485639;0.0-444.0;8651065;06/05/2020 14:25
999;fixation_cross;999;999;fixation;4;1;1;2;1;6;0;8;3;html-keyboard-response;445;486642;0.0-445.0;8651065;06/05/2020 14:25
999;imgJS/WFF_scramble_35.jpg,imgJS/WFF_scramble_18.jpg,imgJS/WFF_scramble_17.jpg,imgJS/WFF_scramble_24.jpg,imgJS/WFF_scramble_32.jpg,imgJS/WFF_scramble_36.jpg,imgJS/WFF_1.jpg,imgJS/WFF_scramble_10.jpg,imgJS/WMN_81.jpg,imgJS/WFF_scramble_15.jpg,imgJS/WFF;999;999;rsvp_img_15;4;1;1;2;1;6;0;8;3;rsvp_flux;446;487697;0.0-446.0;8651065;06/05/2020 14:25
819.33500000741;"<div style=""font-size:20px;""><p> Avez-vous vu au moins un homme? </p><p> <strong> Oui [O] / Non [N] </strong></p> </div>";999;78;rsvpAnswHom;4;1;1;2;1;6;0;8;3;html-keyboard-response;447;488519;0.0-447.0;8651065;06/05/2020 14:25
999;999;999;999;fullscreenExp;999;999;999;999;999;999;999;999;999;fullscreen;448;488570;0.0-448.0;8651065;06/05/2020 14:25
999;fixation_cross;999;999;fixation;4;2;1;2;1;5;0;9;2;html-keyboard-response;449;489575;0.0-449.0;8651065;06/05/2020 14:25
999;imgJS/WFF_scramble_16.jpg,imgJS/WFF_scramble_25.jpg,imgJS/WFF_scramble_21.jpg,imgJS/WFF_scramble_5.jpg,imgJS/WFF_scramble_3.jpg,imgJS/WFF_20.jpg,imgJS/WFF_scramble_25.jpg,imgJS/WFF_scramble_36.jpg,imgJS/WFF_scramble_35.jpg,imgJS/WFN_30.jpg,imgJS/WFF_;999;999;rsvp_img_15;4;2;1;2;1;5;0;9;2;rsvp_flux;450;490628;0.0-450.0;8651065;06/05/2020 14:25
471.70999995433;"<div style=""font-size:20px;""><p> Avez-vous vu au moins un homme? </p><p> <strong> Oui [O] / Non [N] </strong></p> </div>";999;78;rsvpAnswHom;4;2;1;2;1;5;0;9;2;html-keyboard-response;451;491103;0.0-451.0;8651065;06/05/2020 14:25
999;999;999;999;fullscreenExp;999;999;999;999;999;999;999;999;999;fullscreen;452;491144;0.0-452.0;8651065;06/05/2020 14:25
999;fixation_cross;999;999;fixation;4;3;1;2;1;8;0;12;2;html-keyboard-response;453;492148;0.0-453.0;8651065;06/05/2020 14:25
999;imgJS/WFF_scramble_19.jpg,imgJS/WFF_scramble_3.jpg,imgJS/WFF_scramble_2.jpg,imgJS/WFF_scramble_10.jpg,imgJS/WFF_scramble_18.jpg,imgJS/WFF_scramble_31.jpg,imgJS/WFF_scramble_20.jpg,imgJS/WFF_scramble_10.jpg,imgJS/WFF_25.jpg,imgJS/WFF_scramble_2.jpg,im;999;999;rsvp_img_15;4;3;1;2;1;8;0;12;2;rsvp_flux;454;493202;0.0-454.0;8651065;06/05/2020 14:25
552.77999991085;"<div style=""font-size:20px;""><p> Avez-vous vu au moins un homme? </p><p> <strong> Oui [O] / Non [N] </strong></p> </div>";999;78;rsvpAnswHom;4;3;1;2;1;8;0;12;2;html-keyboard-response;455;493758;0.0-455.0;8651065;06/05/2020 14:25
999;999;999;999;fullscreenExp;999;999;999;999;999;999;999;999;999;fullscreen;456;493804;0.0-456.0;8651065;06/05/2020 14:25
999;fixation_cross;999;999;fixation;4;4;1;2;1;6;0;8;2;html-keyboard-response;457;494808;0.0-457.0;8651065;06/05/2020 14:25
999;imgJS/WFF_scramble_30.jpg,imgJS/WFF_scramble_1.jpg,imgJS/WFF_scramble_6.jpg,imgJS/WFF_scramble_9.jpg,imgJS/WFF_scramble_13.jpg,imgJS/WFF_scramble_28.jpg,imgJS/WFF_33.jpg,imgJS/WFF_scramble_3.jpg,imgJS/WFN_55.jpg,imgJS/WFF_scramble_27.jpg,imgJS/WFF_sc;999;999;rsvp_img_15;4;4;1;2;1;6;0;8;2;rsvp_flux;458;495863;0.0-458.0;8651065;06/05/2020 14:25
560.87499996647;"<div style=""font-size:20px;""><p> Avez-vous vu au moins un homme? </p><p> <strong> Oui [O] / Non [N] </strong></p> </div>";999;78;rsvpAnswHom;4;4;1;2;1;6;0;8;2;html-keyboard-response;459;496426;0.0-459.0;8651065;06/05/2020 14:25
999;999;999;999;fullscreenExp;999;999;999;999;999;999;999;999;999;fullscreen;460;496469;0.0-460.0;8651065;06/05/2020 14:25
999;fixation_cross;999;999;fixation;4;5;1;4;1;8;0;10;0;html-keyboard-response;461;497473;0.0-461.0;8651065;06/05/2020 14:25
999;imgJS/WFF_scramble_1.jpg,imgJS/WFF_scramble_26.jpg,imgJS/WFF_scramble_6.jpg,imgJS/WFF_scramble_34.jpg,imgJS/WFF_scramble_17.jpg,imgJS/WFF_scramble_11.jpg,imgJS/WFF_scramble_22.jpg,imgJS/WFF_scramble_21.jpg,imgJS/WFF_4.jpg,imgJS/WFF_scramble_22.jpg,im;999;999;rsvp_img_15;4;5;1;4;1;8;0;10;0;rsvp_flux;462;498528;0.0-462.0;8651065;06/05/2020 14:25
526.71999996528;"<div style=""font-size:20px;""><p> Avez-vous vu au moins un homme? </p><p> <strong> Oui [O] / Non [N] </strong></p> </div>";999;78;rsvpAnswHom;4;5;1;4;1;8;0;10;0;html-keyboard-response;463;499057;0.0-463.0;8651065;06/05/2020 14:25
999;999;999;999;fullscreenExp;999;999;999;999;999;999;999;999;999;fullscreen;464;499097;0.0-464.0;8651065;06/05/2020 14:25
999;fixation_cross;999;999;fixation;4;6;1;3;1;4;3;6;2;html-keyboard-response;465;500101;0.0-465.0;8651065;06/05/2020 14:25
999;imgJS/WMN_scramble_59.jpg,imgJS/WMN_scramble_49.jpg,imgJS/WMN_scramble_45.jpg,imgJS/WMN_scramble_33.jpg,imgJS/WMN_33.jpg,imgJS/WMN_scramble_9.jpg,imgJS/WFN_42.jpg,imgJS/WMN_scramble_76.jpg,imgJS/WMN_scramble_75.jpg,imgJS/WMN_scramble_24.jpg,imgJS/WMN;999;999;rsvp_img_15;4;6;1;3;1;4;3;6;2;rsvp_flux;466;501156;0.0-466.0;8651065;06/05/2020 14:25
1213.4300000034;"<div style=""font-size:20px;""><p> Avez-vous vu au moins une femme? </p><p> <strong> Oui [O] / Non [N] </strong></p> </div>";999;79;rsvpAnswFem;4;6;1;3;1;4;3;6;2;html-keyboard-response;467;502372;0.0-467.0;8651065;06/05/2020 14:25
999;999;999;999;fullscreenExp;999;999;999;999;999;999;999;999;999;fullscreen;468;502412;0.0-468.0;8651065;06/05/2020 14:25
999;fixation_cross;999;999;fixation;4;7;1;1;1;4;1;6;2;html-keyboard-response;469;503416;0.0-469.0;8651065;06/05/2020 14:25
999;imgJS/WMF_scramble_14.jpg,imgJS/WMF_scramble_28.jpg,imgJS/WMF_scramble_11.jpg,imgJS/WMF_scramble_26.jpg,imgJS/WMF_28.jpg,imgJS/WMF_scramble_14.jpg,imgJS/WFN_33.jpg,imgJS/WMF_scramble_16.jpg,imgJS/WMF_scramble_5.jpg,imgJS/WMF_scramble_18.jpg,imgJS/WMF;999;999;rsvp_img_15;4;7;1;1;1;4;1;6;2;rsvp_flux;470;504471;0.0-470.0;8651065;06/05/2020 14:25
572.90999998804;"<div style=""font-size:20px;""><p> Avez-vous vu au moins une femme? </p><p> <strong> Oui [O] / Non [N] </strong></p> </div>";999;78;rsvpAnswFem;4;7;1;1;1;4;1;6;2;html-keyboard-response;471;505046;0.0-471.0;8651065;06/05/2020 14:25
999;999;999;999;fullscreenExp;999;999;999;999;999;999;999;999;999;fullscreen;472;505085;0.0-472.0;8651065;06/05/2020 14:25
999;fixation_cross;999;999;fixation;4;8;1;4;1;5;2;9;3;html-keyboard-response;473;506090;0.0-473.0;8651065;06/05/2020 14:25
999;imgJS/WFN_scramble_51.jpg,imgJS/WFN_scramble_1.jpg,imgJS/WFN_scramble_78.jpg,imgJS/WFN_scramble_41.jpg,imgJS/WFN_scramble_44.jpg,imgJS/WFN_28.jpg,imgJS/WFN_scramble_75.jpg,imgJS/WFN_scramble_13.jpg,imgJS/WFN_scramble_70.jpg,imgJS/WMN_59.jpg,imgJS/WFN;999;999;rsvp_img_15;4;8;1;4;1;5;2;9;3;rsvp_flux;474;507144;0.0-474.0;8651065;06/05/2020 14:25
