rt;stimulus;responses;key_press;test_part;blockNb;trialNb;condiEmoBlock;condiEmoTrial;condiRwd;posCritDist;distractor;posTarget;target;trial_type;trial_index;time_elapsed;internal_node_id;subject_id;date
999;999;999;999;firstFullscreen;999;999;999;999;999;999;999;999;999;fullscreen;0;1496;0.0-0.0;9546715;05/05/2020 14:35
7440.1899999939;999;"[{""page"":0,""time"":5060.24499994237},{""page"":1,""time"":747.3750000353903},{""page"":2,""time"":259.8749999";999;instr;999;999;999;999;999;999;999;999;999;instructions;1;8988;0.0-1.0;9546715;05/05/2020 14:35
999;fixation_cross;999;999;fixation;0;0;1;2;1;6;0;10;3;html-keyboard-response;2;10031;0.0-2.0;9546715;05/05/2020 14:35
999;imgJS/WFF_scramble_4.jpg,imgJS/WFF_scramble_35.jpg,imgJS/WFF_scramble_27.jpg,imgJS/WFF_scramble_28.jpg,imgJS/WFF_scramble_6.jpg,imgJS/WFF_scramble_26.jpg,imgJS/WFF_31.jpg,imgJS/WFF_scramble_36.jpg,imgJS/WFF_scramble_31.jpg,imgJS/WFF_scramble_22.jpg,i;999;999;rsvp_img_15;0;0;1;2;1;6;0;10;3;rsvp_flux;3;11086;0.0-3.0;9546715;05/05/2020 14:35
1965.0799999945;"<div style=""font-size:20px;""><p> Avez-vous vu au moins un homme? </p><p> <strong> Oui [O] / Non [N] </strong></p> </div>";999;78;rsvpAnswHom;0;0;1;2;1;6;0;10;3;html-keyboard-response;4;13055;0.0-4.0;9546715;05/05/2020 14:35
999;999;999;999;fullscreenExp;999;999;999;999;999;999;999;999;999;fullscreen;5;13098;0.0-5.0;9546715;05/05/2020 14:35
999;fixation_cross;999;999;fixation;0;1;1;1;1;4;1;6;2;html-keyboard-response;6;14104;0.0-6.0;9546715;05/05/2020 14:35
999;imgJS/WMF_scramble_20.jpg,imgJS/WMF_scramble_7.jpg,imgJS/WMF_scramble_25.jpg,imgJS/WMF_scramble_25.jpg,imgJS/WMF_23.jpg,imgJS/WMF_scramble_26.jpg,imgJS/WFN_66.jpg,imgJS/WMF_scramble_26.jpg,imgJS/WMF_scramble_27.jpg,imgJS/WMF_scramble_6.jpg,imgJS/WMF_;999;999;rsvp_img_15;0;1;1;1;1;4;1;6;2;rsvp_flux;7;15158;0.0-7.0;9546715;05/05/2020 14:35
1085.1199999452;"<div style=""font-size:20px;""><p> Avez-vous vu au moins une femme? </p><p> <strong> Oui [O] / Non [N] </strong></p> </div>";999;78;rsvpAnswFem;0;1;1;1;1;4;1;6;2;html-keyboard-response;8;16247;0.0-8.0;9546715;05/05/2020 14:35
999;999;999;999;fullscreenExp;999;999;999;999;999;999;999;999;999;fullscreen;9;16290;0.0-9.0;9546715;05/05/2020 14:35
999;fixation_cross;999;999;fixation;0;2;1;4;1;5;0;9;1;html-keyboard-response;10;17295;0.0-10.0;9546715;05/05/2020 14:35
999;imgJS/WFF_scramble_4.jpg,imgJS/WFF_scramble_29.jpg,imgJS/WFF_scramble_11.jpg,imgJS/WFF_scramble_28.jpg,imgJS/WFF_scramble_8.jpg,imgJS/WFF_8.jpg,imgJS/WFF_scramble_11.jpg,imgJS/WFF_scramble_6.jpg,imgJS/WFF_scramble_24.jpg,imgJS/WMF_3.jpg,imgJS/WFF_scr;999;999;rsvp_img_15;0;2;1;4;1;5;0;9;1;rsvp_flux;11;18350;0.0-11.0;9546715;05/05/2020 14:35
1057.2199999588;"<div style=""font-size:20px;""><p> Avez-vous vu au moins un homme? </p><p> <strong> Oui [O] / Non [N] </strong></p> </div>";999;79;rsvpAnswHom;0;2;1;4;1;5;0;9;1;html-keyboard-response;12;19410;0.0-12.0;9546715;05/05/2020 14:35
999;999;999;999;fullscreenExp;999;999;999;999;999;999;999;999;999;fullscreen;13;19455;0.0-13.0;9546715;05/05/2020 14:35
999;fixation_cross;999;999;fixation;0;3;1;2;1;6;0;8;2;html-keyboard-response;14;20459;0.0-14.0;9546715;05/05/2020 14:35
999;imgJS/WFF_scramble_16.jpg,imgJS/WFF_scramble_27.jpg,imgJS/WFF_scramble_29.jpg,imgJS/WFF_scramble_15.jpg,imgJS/WFF_scramble_14.jpg,imgJS/WFF_scramble_16.jpg,imgJS/WFF_5.jpg,imgJS/WFF_scramble_7.jpg,imgJS/WFN_83.jpg,imgJS/WFF_scramble_22.jpg,imgJS/WFF_;999;999;rsvp_img_15;0;3;1;2;1;6;0;8;2;rsvp_flux;15;21513;0.0-15.0;9546715;05/05/2020 14:35
1015.4399999883;"<div style=""font-size:20px;""><p> Avez-vous vu au moins un homme? </p><p> <strong> Oui [O] / Non [N] </strong></p> </div>";999;78;rsvpAnswHom;0;3;1;2;1;6;0;8;2;html-keyboard-response;16;22532;0.0-16.0;9546715;05/05/2020 14:35
999;999;999;999;fullscreenExp;999;999;999;999;999;999;999;999;999;fullscreen;17;22587;0.0-17.0;9546715;05/05/2020 14:35
999;fixation_cross;999;999;fixation;0;4;1;1;1;5;1;9;3;html-keyboard-response;18;23592;0.0-18.0;9546715;05/05/2020 14:35
999;imgJS/WMF_scramble_16.jpg,imgJS/WMF_scramble_12.jpg,imgJS/WMF_scramble_21.jpg,imgJS/WMF_scramble_11.jpg,imgJS/WMF_scramble_24.jpg,imgJS/WMF_10.jpg,imgJS/WMF_scramble_26.jpg,imgJS/WMF_scramble_7.jpg,imgJS/WMF_scramble_13.jpg,imgJS/WMN_55.jpg,imgJS/WMF;999;999;rsvp_img_15;0;4;1;1;1;5;1;9;3;rsvp_flux;19;24646;0.0-19.0;9546715;05/05/2020 14:35
2231.20499996;"<div style=""font-size:20px;""><p> Avez-vous vu au moins une femme? </p><p> <strong> Oui [O] / Non [N] </strong></p> </div>";999;78;rsvpAnswFem;0;4;1;1;1;5;1;9;3;html-keyboard-response;20;26879;0.0-20.0;9546715;05/05/2020 14:35
999;999;999;999;fullscreenExp;999;999;999;999;999;999;999;999;999;fullscreen;21;26920;0.0-21.0;9546715;05/05/2020 14:35
999;fixation_cross;999;999;fixation;0;5;1;3;1;7;1;9;1;html-keyboard-response;22;27925;0.0-22.0;9546715;05/05/2020 14:35
999;imgJS/WMF_scramble_6.jpg,imgJS/WMF_scramble_3.jpg,imgJS/WMF_scramble_2.jpg,imgJS/WMF_scramble_10.jpg,imgJS/WMF_scramble_29.jpg,imgJS/WMF_scramble_25.jpg,imgJS/WMF_scramble_10.jpg,imgJS/WMF_18.jpg,imgJS/WMF_scramble_21.jpg,imgJS/WMF_28.jpg,imgJS/WMF_s;999;999;rsvp_img_15;0;5;1;3;1;7;1;9;1;rsvp_flux;23;28978;0.0-23.0;9546715;05/05/2020 14:35
865.08500005584;"<div style=""font-size:20px;""><p> Avez-vous vu au moins une femme? </p><p> <strong> Oui [O] / Non [N] </strong></p> </div>";999;78;rsvpAnswFem;0;5;1;3;1;7;1;9;1;html-keyboard-response;24;29846;0.0-24.0;9546715;05/05/2020 14:35
999;999;999;999;fullscreenExp;999;999;999;999;999;999;999;999;999;fullscreen;25;29892;0.0-25.0;9546715;05/05/2020 14:35
999;fixation_cross;999;999;fixation;1;0;2;6;2;7;2;9;0;html-keyboard-response;26;30899;0.0-26.0;9546715;05/05/2020 14:35
999;imgJS/WFN_scramble_22.jpg,imgJS/WFN_scramble_82.jpg,imgJS/WFN_scramble_80.jpg,imgJS/WFN_scramble_11.jpg,imgJS/WFN_scramble_59.jpg,imgJS/WFN_scramble_54.jpg,imgJS/WFN_scramble_51.jpg,imgJS/WFN_64.jpg,imgJS/WFN_scramble_51.jpg,imgJS/WFF_29.jpg,imgJS/WF;999;999;rsvp_img_15;1;0;2;6;2;7;2;9;0;rsvp_flux;27;31952;0.0-27.0;9546715;05/05/2020 14:35
941.01000006776;"<div style=""font-size:20px;""><p> Avez-vous vu au moins un homme? </p><p> <strong> Oui [O] / Non [N] </strong></p> </div>";999;78;rsvpAnswHom;1;0;2;6;2;7;2;9;0;html-keyboard-response;28;32896;0.0-28.0;9546715;05/05/2020 14:35
999;999;999;999;fullscreenExp;999;999;999;999;999;999;999;999;999;fullscreen;29;32939;0.0-29.0;9546715;05/05/2020 14:35
999;fixation_cross;999;999;fixation;1;1;2;6;2;6;2;8;0;html-keyboard-response;30;33943;0.0-30.0;9546715;05/05/2020 14:35
999;imgJS/WFN_scramble_17.jpg,imgJS/WFN_scramble_75.jpg,imgJS/WFN_scramble_46.jpg,imgJS/WFN_scramble_70.jpg,imgJS/WFN_scramble_56.jpg,imgJS/WFN_scramble_26.jpg,imgJS/WFN_49.jpg,imgJS/WFN_scramble_68.jpg,imgJS/WFF_16.jpg,imgJS/WFN_scramble_65.jpg,imgJS/WF;999;999;rsvp_img_15;1;1;2;6;2;6;2;8;0;rsvp_flux;31;34998;0.0-31.0;9546715;05/05/2020 14:35
1208.5700000171;"<div style=""font-size:20px;""><p> Avez-vous vu au moins un homme? </p><p> <strong> Oui [O] / Non [N] </strong></p> </div>";999;78;rsvpAnswHom;1;1;2;6;2;6;2;8;0;html-keyboard-response;32;36210;0.0-32.0;9546715;05/05/2020 14:35
999;999;999;999;fullscreenExp;999;999;999;999;999;999;999;999;999;fullscreen;33;36257;0.0-33.0;9546715;05/05/2020 14:35
999;fixation_cross;999;999;fixation;1;2;2;4;2;4;2;8;2;html-keyboard-response;34;37261;0.0-34.0;9546715;05/05/2020 14:35
999;imgJS/WFN_scramble_26.jpg,imgJS/WFN_scramble_24.jpg,imgJS/WFN_scramble_30.jpg,imgJS/WFN_scramble_26.jpg,imgJS/WFN_61.jpg,imgJS/WFN_scramble_25.jpg,imgJS/WFN_scramble_34.jpg,imgJS/WFN_scramble_78.jpg,imgJS/WFN_79.jpg,imgJS/WFN_scramble_77.jpg,imgJS/WF;999;999;rsvp_img_15;1;2;2;4;2;4;2;8;2;rsvp_flux;35;38314;0.0-35.0;9546715;05/05/2020 14:35
927.64000000898;"<div style=""font-size:20px;""><p> Avez-vous vu au moins un homme? </p><p> <strong> Oui [O] / Non [N] </strong></p> </div>";999;78;rsvpAnswHom;1;2;2;4;2;4;2;8;2;html-keyboard-response;36;39245;0.0-36.0;9546715;05/05/2020 14:35
999;999;999;999;fullscreenExp;999;999;999;999;999;999;999;999;999;fullscreen;37;39287;0.0-37.0;9546715;05/05/2020 14:35
999;fixation_cross;999;999;fixation;1;3;2;5;2;5;3;7;0;html-keyboard-response;38;40292;0.0-38.0;9546715;05/05/2020 14:35
999;imgJS/WMN_scramble_60.jpg,imgJS/WMN_scramble_21.jpg,imgJS/WMN_scramble_22.jpg,imgJS/WMN_scramble_44.jpg,imgJS/WMN_scramble_46.jpg,imgJS/WMN_67.jpg,imgJS/WMN_scramble_9.jpg,imgJS/WFF_24.jpg,imgJS/WMN_scramble_55.jpg,imgJS/WMN_scramble_34.jpg,imgJS/WMN;999;999;rsvp_img_15;1;3;2;5;2;5;3;7;0;rsvp_flux;39;41346;0.0-39.0;9546715;05/05/2020 14:35
575.24499995634;"<div style=""font-size:20px;""><p> Avez-vous vu au moins une femme? </p><p> <strong> Oui [O] / Non [N] </strong></p> </div>";999;79;rsvpAnswFem;1;3;2;5;2;5;3;7;0;html-keyboard-response;40;41924;0.0-40.0;9546715;05/05/2020 14:35
999;999;999;999;fullscreenExp;999;999;999;999;999;999;999;999;999;fullscreen;41;41964;0.0-41.0;9546715;05/05/2020 14:35
999;fixation_cross;999;999;fixation;1;4;2;3;2;7;3;11;2;html-keyboard-response;42;42968;0.0-42.0;9546715;05/05/2020 14:35
999;imgJS/WMN_scramble_13.jpg,imgJS/WMN_scramble_53.jpg,imgJS/WMN_scramble_11.jpg,imgJS/WMN_scramble_64.jpg,imgJS/WMN_scramble_16.jpg,imgJS/WMN_scramble_30.jpg,imgJS/WMN_scramble_65.jpg,imgJS/WMN_59.jpg,imgJS/WMN_scramble_29.jpg,imgJS/WMN_scramble_43.jpg;999;999;rsvp_img_15;1;4;2;3;2;7;3;11;2;rsvp_flux;43;44022;0.0-43.0;9546715;05/05/2020 14:35
5233.3949999884;"<div style=""font-size:20px;""><p> Avez-vous vu au moins une femme? </p><p> <strong> Oui [O] / Non [N] </strong></p> </div>";999;78;rsvpAnswFem;1;4;2;3;2;7;3;11;2;html-keyboard-response;44;49259;0.0-44.0;9546715;05/05/2020 14:35
999;999;999;999;fullscreenExp;999;999;999;999;999;999;999;999;999;fullscreen;45;49310;0.0-45.0;9546715;05/05/2020 14:35
999;fixation_cross;999;999;fixation;1;5;2;5;2;8;3;12;1;html-keyboard-response;46;50314;0.0-46.0;9546715;05/05/2020 14:35
999;imgJS/WMN_scramble_57.jpg,imgJS/WMN_scramble_32.jpg,imgJS/WMN_scramble_51.jpg,imgJS/WMN_scramble_76.jpg,imgJS/WMN_scramble_42.jpg,imgJS/WMN_scramble_6.jpg,imgJS/WMN_scramble_12.jpg,imgJS/WMN_scramble_71.jpg,imgJS/WMN_41.jpg,imgJS/WMN_scramble_17.jpg,;999;999;rsvp_img_15;1;5;2;5;2;8;3;12;1;rsvp_flux;47;51367;0.0-47.0;9546715;05/05/2020 14:35
954.3550000526;"<div style=""font-size:20px;""><p> Avez-vous vu au moins une femme? </p><p> <strong> Oui [O] / Non [N] </strong></p> </div>";999;78;rsvpAnswFem;1;5;2;5;2;8;3;12;1;html-keyboard-response;48;52324;0.0-48.0;9546715;05/05/2020 14:35
999;999;999;999;fullscreenExp;999;999;999;999;999;999;999;999;999;fullscreen;49;52373;0.0-49.0;9546715;05/05/2020 14:35
999;999;999;999;fullscreenExp;999;999;999;999;999;999;999;999;999;fullscreen;50;52377;0.0-50.0;9546715;05/05/2020 14:35
999;instructions/instructionsDiapo/Slide11.jpg;999;999;instr;999;999;999;999;999;999;999;999;999;image-keyboard-response;51;59013;0.0-51.0;9546715;05/05/2020 14:35
999;instructions/instructionsDiapo/Slide5.jpg;999;999;instrCondi;0;999;NULL;NULL;2;999;999;999;999;image-keyboard-response;52;66203;0.0-52.0;9546715;05/05/2020 14:35
999;fixation_cross;999;999;fixation;0;0;1;2;2;4;0;8;3;html-keyboard-response;53;67208;0.0-53.0;9546715;05/05/2020 14:35
999;imgJS/WFF_scramble_34.jpg,imgJS/WFF_scramble_3.jpg,imgJS/WFF_scramble_20.jpg,imgJS/WFF_scramble_17.jpg,imgJS/WFF_15.jpg,imgJS/WFF_scramble_5.jpg,imgJS/WFF_scramble_1.jpg,imgJS/WFF_scramble_3.jpg,imgJS/WMN_3.jpg,imgJS/WFF_scramble_5.jpg,imgJS/WFF_scra;999;999;rsvp_img_15;0;0;1;2;2;4;0;8;3;rsvp_flux;54;68273;0.0-54.0;9546715;05/05/2020 14:35
739.2599999439;"<div style=""font-size:20px;""><p> Avez-vous vu au moins un homme? </p><p> <strong> Oui [O] / Non [N] </strong></p> </div>";999;79;rsvpAnswHom;0;0;1;2;2;4;0;8;3;html-keyboard-response;55;69015;0.0-55.0;9546715;05/05/2020 14:35
999;999;999;999;fullscreenExp;999;999;999;999;999;999;999;999;999;fullscreen;56;69053;0.0-56.0;9546715;05/05/2020 14:35
999;fixation_cross;999;999;fixation;0;1;1;2;2;5;0;7;3;html-keyboard-response;57;70058;0.0-57.0;9546715;05/05/2020 14:35
999;imgJS/WFF_scramble_9.jpg,imgJS/WFF_scramble_13.jpg,imgJS/WFF_scramble_7.jpg,imgJS/WFF_scramble_14.jpg,imgJS/WFF_scramble_1.jpg,imgJS/WFF_18.jpg,imgJS/WFF_scramble_35.jpg,imgJS/WMN_88.jpg,imgJS/WFF_scramble_23.jpg,imgJS/WFF_scramble_10.jpg,imgJS/WFF_s;999;999;rsvp_img_15;0;1;1;2;2;5;0;7;3;rsvp_flux;58;71112;0.0-58.0;9546715;05/05/2020 14:35
1920.2250000089;"<div style=""font-size:20px;""><p> Avez-vous vu au moins un homme? </p><p> <strong> Oui [O] / Non [N] </strong></p> </div>";999;78;rsvpAnswHom;0;1;1;2;2;5;0;7;3;html-keyboard-response;59;73034;0.0-59.0;9546715;05/05/2020 14:35
999;999;999;999;fullscreenExp;999;999;999;999;999;999;999;999;999;fullscreen;60;73077;0.0-60.0;9546715;05/05/2020 14:35
999;fixation_cross;999;999;fixation;0;2;1;2;2;7;0;11;3;html-keyboard-response;61;74081;0.0-61.0;9546715;05/05/2020 14:35
999;imgJS/WFF_scramble_30.jpg,imgJS/WFF_scramble_13.jpg,imgJS/WFF_scramble_35.jpg,imgJS/WFF_scramble_10.jpg,imgJS/WFF_scramble_16.jpg,imgJS/WFF_scramble_13.jpg,imgJS/WFF_scramble_32.jpg,imgJS/WFF_3.jpg,imgJS/WFF_scramble_14.jpg,imgJS/WFF_scramble_6.jpg,i;999;999;rsvp_img_15;0;2;1;2;2;7;0;11;3;rsvp_flux;62;75133;0.0-62.0;9546715;05/05/2020 14:35
601.43500007689;"<div style=""font-size:20px;""><p> Avez-vous vu au moins un homme? </p><p> <strong> Oui [O] / Non [N] </strong></p> </div>";999;79;rsvpAnswHom;0;2;1;2;2;7;0;11;3;html-keyboard-response;63;75737;0.0-63.0;9546715;05/05/2020 14:35
999;999;999;999;fullscreenExp;999;999;999;999;999;999;999;999;999;fullscreen;64;75777;0.0-64.0;9546715;05/05/2020 14:35
999;fixation_cross;999;999;fixation;0;3;1;3;2;6;1;10;1;html-keyboard-response;65;76782;0.0-65.0;9546715;05/05/2020 14:35
999;imgJS/WMF_scramble_27.jpg,imgJS/WMF_scramble_18.jpg,imgJS/WMF_scramble_3.jpg,imgJS/WMF_scramble_13.jpg,imgJS/WMF_scramble_21.jpg,imgJS/WMF_scramble_3.jpg,imgJS/WMF_1.jpg,imgJS/WMF_scramble_28.jpg,imgJS/WMF_scramble_1.jpg,imgJS/WMF_scramble_15.jpg,img;999;999;rsvp_img_15;0;3;1;3;2;6;1;10;1;rsvp_flux;66;77836;0.0-66.0;9546715;05/05/2020 14:35
758.04499990772;"<div style=""font-size:20px;""><p> Avez-vous vu au moins une femme? </p><p> <strong> Oui [O] / Non [N] </strong></p> </div>";999;78;rsvpAnswFem;0;3;1;3;2;6;1;10;1;html-keyboard-response;67;78596;0.0-67.0;9546715;05/05/2020 14:35
999;999;999;999;fullscreenExp;999;999;999;999;999;999;999;999;999;fullscreen;68;78634;0.0-68.0;9546715;05/05/2020 14:35
999;fixation_cross;999;999;fixation;0;4;1;2;2;5;0;7;3;html-keyboard-response;69;79640;0.0-69.0;9546715;05/05/2020 14:35
999;imgJS/WFF_scramble_27.jpg,imgJS/WFF_scramble_11.jpg,imgJS/WFF_scramble_4.jpg,imgJS/WFF_scramble_24.jpg,imgJS/WFF_scramble_4.jpg,imgJS/WFF_14.jpg,imgJS/WFF_scramble_33.jpg,imgJS/WMN_75.jpg,imgJS/WFF_scramble_21.jpg,imgJS/WFF_scramble_19.jpg,imgJS/WFF_;999;999;rsvp_img_15;0;4;1;2;2;5;0;7;3;rsvp_flux;70;80693;0.0-70.0;9546715;05/05/2020 14:35
1103.0000000028;"<div style=""font-size:20px;""><p> Avez-vous vu au moins un homme? </p><p> <strong> Oui [O] / Non [N] </strong></p> </div>";999;78;rsvpAnswHom;0;4;1;2;2;5;0;7;3;html-keyboard-response;71;81799;0.0-71.0;9546715;05/05/2020 14:35
999;999;999;999;fullscreenExp;999;999;999;999;999;999;999;999;999;fullscreen;72;81837;0.0-72.0;9546715;05/05/2020 14:35
999;fixation_cross;999;999;fixation;0;5;1;3;2;6;3;8;2;html-keyboard-response;73;82842;0.0-73.0;9546715;05/05/2020 14:35
999;imgJS/WMN_scramble_49.jpg,imgJS/WMN_scramble_40.jpg,imgJS/WMN_scramble_41.jpg,imgJS/WMN_scramble_25.jpg,imgJS/WMN_scramble_35.jpg,imgJS/WMN_scramble_63.jpg,imgJS/WMN_71.jpg,imgJS/WMN_scramble_81.jpg,imgJS/WFN_74.jpg,imgJS/WMN_scramble_46.jpg,imgJS/WM;999;999;rsvp_img_15;0;5;1;3;2;6;3;8;2;rsvp_flux;74;83898;0.0-74.0;9546715;05/05/2020 14:35
752.42000003345;"<div style=""font-size:20px;""><p> Avez-vous vu au moins une femme? </p><p> <strong> Oui [O] / Non [N] </strong></p> </div>";999;79;rsvpAnswFem;0;5;1;3;2;6;3;8;2;html-keyboard-response;75;84653;0.0-75.0;9546715;05/05/2020 14:35
999;999;999;999;fullscreenExp;999;999;999;999;999;999;999;999;999;fullscreen;76;84691;0.0-76.0;9546715;05/05/2020 14:35
999;fixation_cross;999;999;fixation;0;6;1;2;2;6;0;8;3;html-keyboard-response;77;85695;0.0-77.0;9546715;05/05/2020 14:35
999;imgJS/WFF_scramble_28.jpg,imgJS/WFF_scramble_23.jpg,imgJS/WFF_scramble_3.jpg,imgJS/WFF_scramble_11.jpg,imgJS/WFF_scramble_3.jpg,imgJS/WFF_scramble_23.jpg,imgJS/WFF_8.jpg,imgJS/WFF_scramble_11.jpg,imgJS/WMN_77.jpg,imgJS/WFF_scramble_19.jpg,imgJS/WFF_s;999;999;rsvp_img_15;0;6;1;2;2;6;0;8;3;rsvp_flux;78;86749;0.0-78.0;9546715;05/05/2020 14:35
845.90999991633;"<div style=""font-size:20px;""><p> Avez-vous vu au moins un homme? </p><p> <strong> Oui [O] / Non [N] </strong></p> </div>";999;78;rsvpAnswHom;0;6;1;2;2;6;0;8;3;html-keyboard-response;79;87597;0.0-79.0;9546715;05/05/2020 14:35
999;999;999;999;fullscreenExp;999;999;999;999;999;999;999;999;999;fullscreen;80;87636;0.0-80.0;9546715;05/05/2020 14:35
999;fixation_cross;999;999;fixation;0;7;1;2;2;8;0;12;3;html-keyboard-response;81;88642;0.0-81.0;9546715;05/05/2020 14:35
999;imgJS/WFF_scramble_11.jpg,imgJS/WFF_scramble_16.jpg,imgJS/WFF_scramble_24.jpg,imgJS/WFF_scramble_27.jpg,imgJS/WFF_scramble_15.jpg,imgJS/WFF_scramble_3.jpg,imgJS/WFF_scramble_13.jpg,imgJS/WFF_scramble_16.jpg,imgJS/WFF_4.jpg,imgJS/WFF_scramble_30.jpg,i;999;999;rsvp_img_15;0;7;1;2;2;8;0;12;3;rsvp_flux;82;89695;0.0-82.0;9546715;05/05/2020 14:35
872.08500003908;"<div style=""font-size:20px;""><p> Avez-vous vu au moins un homme? </p><p> <strong> Oui [O] / Non [N] </strong></p> </div>";999;78;rsvpAnswHom;0;7;1;2;2;8;0;12;3;html-keyboard-response;83;90570;0.0-83.0;9546715;05/05/2020 14:35
999;999;999;999;fullscreenExp;999;999;999;999;999;999;999;999;999;fullscreen;84;90608;0.0-84.0;9546715;05/05/2020 14:35
999;fixation_cross;999;999;fixation;0;8;1;1;2;4;1;6;3;html-keyboard-response;85;91612;0.0-85.0;9546715;05/05/2020 14:35
999;imgJS/WMF_scramble_4.jpg,imgJS/WMF_scramble_20.jpg,imgJS/WMF_scramble_23.jpg,imgJS/WMF_scramble_5.jpg,imgJS/WMF_19.jpg,imgJS/WMF_scramble_4.jpg,imgJS/WMN_39.jpg,imgJS/WMF_scramble_22.jpg,imgJS/WMF_scramble_19.jpg,imgJS/WMF_scramble_9.jpg,imgJS/WMF_sc;999;999;rsvp_img_15;0;8;1;1;2;4;1;6;3;rsvp_flux;86;92665;0.0-86.0;9546715;05/05/2020 14:35
967.32500009239;"<div style=""font-size:20px;""><p> Avez-vous vu au moins une femme? </p><p> <strong> Oui [O] / Non [N] </strong></p> </div>";999;78;rsvpAnswFem;0;8;1;1;2;4;1;6;3;html-keyboard-response;87;93636;0.0-87.0;9546715;05/05/2020 14:35
999;999;999;999;fullscreenExp;999;999;999;999;999;999;999;999;999;fullscreen;88;93680;0.0-88.0;9546715;05/05/2020 14:35
999;fixation_cross;999;999;fixation;0;9;1;4;2;5;2;7;3;html-keyboard-response;89;94684;0.0-89.0;9546715;05/05/2020 14:35
999;imgJS/WFN_scramble_38.jpg,imgJS/WFN_scramble_9.jpg,imgJS/WFN_scramble_4.jpg,imgJS/WFN_scramble_81.jpg,imgJS/WFN_scramble_32.jpg,imgJS/WFN_11.jpg,imgJS/WFN_scramble_4.jpg,imgJS/WMN_58.jpg,imgJS/WFN_scramble_18.jpg,imgJS/WFN_scramble_86.jpg,imgJS/WFN_s;999;999;rsvp_img_15;0;9;1;4;2;5;2;7;3;rsvp_flux;90;95738;0.0-90.0;9546715;05/05/2020 14:35
529.62499996647;"<div style=""font-size:20px;""><p> Avez-vous vu au moins un homme? </p><p> <strong> Oui [O] / Non [N] </strong></p> </div>";999;79;rsvpAnswHom;0;9;1;4;2;5;2;7;3;html-keyboard-response;91;96270;0.0-91.0;9546715;05/05/2020 14:35
999;999;999;999;fullscreenExp;999;999;999;999;999;999;999;999;999;fullscreen;92;96315;0.0-92.0;9546715;05/05/2020 14:35
999;fixation_cross;999;999;fixation;0;10;1;3;2;8;1;10;1;html-keyboard-response;93;97320;0.0-93.0;9546715;05/05/2020 14:35
999;imgJS/WMF_scramble_4.jpg,imgJS/WMF_scramble_17.jpg,imgJS/WMF_scramble_8.jpg,imgJS/WMF_scramble_17.jpg,imgJS/WMF_scramble_13.jpg,imgJS/WMF_scramble_2.jpg,imgJS/WMF_scramble_4.jpg,imgJS/WMF_scramble_18.jpg,imgJS/WMF_29.jpg,imgJS/WMF_scramble_5.jpg,imgJ;999;999;rsvp_img_15;0;10;1;3;2;8;1;10;1;rsvp_flux;94;98374;0.0-94.0;9546715;05/05/2020 14:35
737.51999996603;"<div style=""font-size:20px;""><p> Avez-vous vu au moins une femme? </p><p> <strong> Oui [O] / Non [N] </strong></p> </div>";999;78;rsvpAnswFem;0;10;1;3;2;8;1;10;1;html-keyboard-response;95;99115;0.0-95.0;9546715;05/05/2020 14:35
999;999;999;999;fullscreenExp;999;999;999;999;999;999;999;999;999;fullscreen;96;99156;0.0-96.0;9546715;05/05/2020 14:35
999;fixation_cross;999;999;fixation;0;11;1;1;2;5;1;9;3;html-keyboard-response;97;100159;0.0-97.0;9546715;05/05/2020 14:35
999;imgJS/WMF_scramble_18.jpg,imgJS/WMF_scramble_10.jpg,imgJS/WMF_scramble_4.jpg,imgJS/WMF_scramble_7.jpg,imgJS/WMF_scramble_1.jpg,imgJS/WMF_7.jpg,imgJS/WMF_scramble_28.jpg,imgJS/WMF_scramble_11.jpg,imgJS/WMF_scramble_14.jpg,imgJS/WMN_26.jpg,imgJS/WMF_sc;999;999;rsvp_img_15;0;11;1;1;2;5;1;9;3;rsvp_flux;98;101214;0.0-98.0;9546715;05/05/2020 14:35
644.05499992426;"<div style=""font-size:20px;""><p> Avez-vous vu au moins une femme? </p><p> <strong> Oui [O] / Non [N] </strong></p> </div>";999;78;rsvpAnswFem;0;11;1;1;2;5;1;9;3;html-keyboard-response;99;101861;0.0-99.0;9546715;05/05/2020 14:35
999;999;999;999;fullscreenExp;999;999;999;999;999;999;999;999;999;fullscreen;100;101905;0.0-100.0;9546715;05/05/2020 14:35
999;fixation_cross;999;999;fixation;0;12;1;4;2;4;2;6;2;html-keyboard-response;101;102910;0.0-101.0;9546715;05/05/2020 14:35
999;imgJS/WFN_scramble_3.jpg,imgJS/WFN_scramble_80.jpg,imgJS/WFN_scramble_45.jpg,imgJS/WFN_scramble_45.jpg,imgJS/WFN_33.jpg,imgJS/WFN_scramble_43.jpg,imgJS/WFN_83.jpg,imgJS/WFN_scramble_8.jpg,imgJS/WFN_scramble_68.jpg,imgJS/WFN_scramble_35.jpg,imgJS/WFN_;999;999;rsvp_img_15;0;12;1;4;2;4;2;6;2;rsvp_flux;102;103965;0.0-102.0;9546715;05/05/2020 14:35
1170.4949999694;"<div style=""font-size:20px;""><p> Avez-vous vu au moins un homme? </p><p> <strong> Oui [O] / Non [N] </strong></p> </div>";999;78;rsvpAnswHom;0;12;1;4;2;4;2;6;2;html-keyboard-response;103;105138;0.0-103.0;9546715;05/05/2020 14:35
999;999;999;999;fullscreenExp;999;999;999;999;999;999;999;999;999;fullscreen;104;105181;0.0-104.0;9546715;05/05/2020 14:35
999;fixation_cross;999;999;fixation;0;13;1;1;2;5;1;7;2;html-keyboard-response;105;106185;0.0-105.0;9546715;05/05/2020 14:35
999;imgJS/WMF_scramble_5.jpg,imgJS/WMF_scramble_13.jpg,imgJS/WMF_scramble_3.jpg,imgJS/WMF_scramble_6.jpg,imgJS/WMF_scramble_17.jpg,imgJS/WMF_19.jpg,imgJS/WMF_scramble_3.jpg,imgJS/WFN_78.jpg,imgJS/WMF_scramble_8.jpg,imgJS/WMF_scramble_23.jpg,imgJS/WMF_scr;999;999;rsvp_img_15;0;13;1;1;2;5;1;7;2;rsvp_flux;106;107238;0.0-106.0;9546715;05/05/2020 14:35
672.93000000063;"<div style=""font-size:20px;""><p> Avez-vous vu au moins une femme? </p><p> <strong> Oui [O] / Non [N] </strong></p> </div>";999;78;rsvpAnswFem;0;13;1;1;2;5;1;7;2;html-keyboard-response;107;107915;0.0-107.0;9546715;05/05/2020 14:35
999;999;999;999;fullscreenExp;999;999;999;999;999;999;999;999;999;fullscreen;108;107954;0.0-108.0;9546715;05/05/2020 14:35
999;fixation_cross;999;999;fixation;0;14;1;4;2;8;0;12;1;html-keyboard-response;109;108959;0.0-109.0;9546715;05/05/2020 14:35
999;imgJS/WFF_scramble_1.jpg,imgJS/WFF_scramble_7.jpg,imgJS/WFF_scramble_8.jpg,imgJS/WFF_scramble_19.jpg,imgJS/WFF_scramble_20.jpg,imgJS/WFF_scramble_24.jpg,imgJS/WFF_scramble_8.jpg,imgJS/WFF_scramble_8.jpg,imgJS/WFF_6.jpg,imgJS/WFF_scramble_14.jpg,imgJS;999;999;rsvp_img_15;0;14;1;4;2;8;0;12;1;rsvp_flux;110;110012;0.0-110.0;9546715;05/05/2020 14:35
873.27999994159;"<div style=""font-size:20px;""><p> Avez-vous vu au moins un homme? </p><p> <strong> Oui [O] / Non [N] </strong></p> </div>";999;79;rsvpAnswHom;0;14;1;4;2;8;0;12;1;html-keyboard-response;111;110889;0.0-111.0;9546715;05/05/2020 14:35
999;999;999;999;fullscreenExp;999;999;999;999;999;999;999;999;999;fullscreen;112;110934;0.0-112.0;9546715;05/05/2020 14:35
999;fixation_cross;999;999;fixation;0;15;1;3;2;4;1;8;1;html-keyboard-response;113;111939;0.0-113.0;9546715;05/05/2020 14:35
999;imgJS/WMF_scramble_25.jpg,imgJS/WMF_scramble_19.jpg,imgJS/WMF_scramble_15.jpg,imgJS/WMF_scramble_6.jpg,imgJS/WMF_28.jpg,imgJS/WMF_scramble_1.jpg,imgJS/WMF_scramble_23.jpg,imgJS/WMF_scramble_1.jpg,imgJS/WMF_27.jpg,imgJS/WMF_scramble_8.jpg,imgJS/WMF_sc;999;999;rsvp_img_15;0;15;1;3;2;4;1;8;1;rsvp_flux;114;112993;0.0-114.0;9546715;05/05/2020 14:35
1255.9599999804;"<div style=""font-size:20px;""><p> Avez-vous vu au moins une femme? </p><p> <strong> Oui [O] / Non [N] </strong></p> </div>";999;78;rsvpAnswFem;0;15;1;3;2;4;1;8;1;html-keyboard-response;115;114251;0.0-115.0;9546715;05/05/2020 14:35
999;999;999;999;fullscreenExp;999;999;999;999;999;999;999;999;999;fullscreen;116;114299;0.0-116.0;9546715;05/05/2020 14:35
999;fixation_cross;999;999;fixation;0;16;1;2;2;4;0;6;2;html-keyboard-response;117;115303;0.0-117.0;9546715;05/05/2020 14:35
999;imgJS/WFF_scramble_16.jpg,imgJS/WFF_scramble_6.jpg,imgJS/WFF_scramble_35.jpg,imgJS/WFF_scramble_11.jpg,imgJS/WFF_12.jpg,imgJS/WFF_scramble_29.jpg,imgJS/WFN_11.jpg,imgJS/WFF_scramble_23.jpg,imgJS/WFF_scramble_17.jpg,imgJS/WFF_scramble_19.jpg,imgJS/WFF;999;999;rsvp_img_15;0;16;1;2;2;4;0;6;2;rsvp_flux;118;116356;0.0-118.0;9546715;05/05/2020 14:35
880.17000001855;"<div style=""font-size:20px;""><p> Avez-vous vu au moins un homme? </p><p> <strong> Oui [O] / Non [N] </strong></p> </div>";999;78;rsvpAnswHom;0;16;1;2;2;4;0;6;2;html-keyboard-response;119;117239;0.0-119.0;9546715;05/05/2020 14:35
999;999;999;999;fullscreenExp;999;999;999;999;999;999;999;999;999;fullscreen;120;117277;0.0-120.0;9546715;05/05/2020 14:35
999;fixation_cross;999;999;fixation;0;17;1;4;2;6;2;10;2;html-keyboard-response;121;118282;0.0-121.0;9546715;05/05/2020 14:35
999;imgJS/WFN_scramble_48.jpg,imgJS/WFN_scramble_64.jpg,imgJS/WFN_scramble_61.jpg,imgJS/WFN_scramble_40.jpg,imgJS/WFN_scramble_10.jpg,imgJS/WFN_scramble_41.jpg,imgJS/WFN_1.jpg,imgJS/WFN_scramble_40.jpg,imgJS/WFN_scramble_37.jpg,imgJS/WFN_scramble_9.jpg,i;999;999;rsvp_img_15;0;17;1;4;2;6;2;10;2;rsvp_flux;122;119336;0.0-122.0;9546715;05/05/2020 14:35
894.0050000092;"<div style=""font-size:20px;""><p> Avez-vous vu au moins un homme? </p><p> <strong> Oui [O] / Non [N] </strong></p> </div>";999;78;rsvpAnswHom;0;17;1;4;2;6;2;10;2;html-keyboard-response;123;120232;0.0-123.0;9546715;05/05/2020 14:35
999;999;999;999;fullscreenExp;999;999;999;999;999;999;999;999;999;fullscreen;124;120270;0.0-124.0;9546715;05/05/2020 14:35
999;fixation_cross;999;999;fixation;0;18;1;1;2;6;1;10;2;html-keyboard-response;125;121274;0.0-125.0;9546715;05/05/2020 14:35
999;imgJS/WMF_scramble_25.jpg,imgJS/WMF_scramble_5.jpg,imgJS/WMF_scramble_1.jpg,imgJS/WMF_scramble_15.jpg,imgJS/WMF_scramble_7.jpg,imgJS/WMF_scramble_20.jpg,imgJS/WMF_8.jpg,imgJS/WMF_scramble_29.jpg,imgJS/WMF_scramble_11.jpg,imgJS/WMF_scramble_11.jpg,img;999;999;rsvp_img_15;0;18;1;1;2;6;1;10;2;rsvp_flux;126;122329;0.0-126.0;9546715;05/05/2020 14:35
2069.2949999357;"<div style=""font-size:20px;""><p> Avez-vous vu au moins une femme? </p><p> <strong> Oui [O] / Non [N] </strong></p> </div>";999;79;rsvpAnswFem;0;18;1;1;2;6;1;10;2;html-keyboard-response;127;124401;0.0-127.0;9546715;05/05/2020 14:35
999;999;999;999;fullscreenExp;999;999;999;999;999;999;999;999;999;fullscreen;128;124453;0.0-128.0;9546715;05/05/2020 14:35
999;fixation_cross;999;999;fixation;0;19;1;1;2;8;1;12;2;html-keyboard-response;129;125458;0.0-129.0;9546715;05/05/2020 14:35
999;imgJS/WMF_scramble_3.jpg,imgJS/WMF_scramble_22.jpg,imgJS/WMF_scramble_3.jpg,imgJS/WMF_scramble_4.jpg,imgJS/WMF_scramble_6.jpg,imgJS/WMF_scramble_2.jpg,imgJS/WMF_scramble_12.jpg,imgJS/WMF_scramble_10.jpg,imgJS/WMF_6.jpg,imgJS/WMF_scramble_4.jpg,imgJS/;999;999;rsvp_img_15;0;19;1;1;2;8;1;12;2;rsvp_flux;130;126512;0.0-130.0;9546715;05/05/2020 14:35
532.9100000672;"<div style=""font-size:20px;""><p> Avez-vous vu au moins une femme? </p><p> <strong> Oui [O] / Non [N] </strong></p> </div>";999;79;rsvpAnswFem;0;19;1;1;2;8;1;12;2;html-keyboard-response;131;127048;0.0-131.0;9546715;05/05/2020 14:35
999;999;999;999;fullscreenExp;999;999;999;999;999;999;999;999;999;fullscreen;132;127089;0.0-132.0;9546715;05/05/2020 14:35
999;fixation_cross;999;999;fixation;0;20;1;2;2;5;0;7;3;html-keyboard-response;133;128094;0.0-133.0;9546715;05/05/2020 14:35
999;imgJS/WFF_scramble_18.jpg,imgJS/WFF_scramble_27.jpg,imgJS/WFF_scramble_4.jpg,imgJS/WFF_scramble_14.jpg,imgJS/WFF_scramble_36.jpg,imgJS/WFF_35.jpg,imgJS/WFF_scramble_35.jpg,imgJS/WMN_64.jpg,imgJS/WFF_scramble_22.jpg,imgJS/WFF_scramble_32.jpg,imgJS/WFF;999;999;rsvp_img_15;0;20;1;2;2;5;0;7;3;rsvp_flux;134;129148;0.0-134.0;9546715;05/05/2020 14:35
982.46500000823;"<div style=""font-size:20px;""><p> Avez-vous vu au moins un homme? </p><p> <strong> Oui [O] / Non [N] </strong></p> </div>";999;78;rsvpAnswHom;0;20;1;2;2;5;0;7;3;html-keyboard-response;135;130133;0.0-135.0;9546715;05/05/2020 14:35
999;999;999;999;fullscreenExp;999;999;999;999;999;999;999;999;999;fullscreen;136;130182;0.0-136.0;9546715;05/05/2020 14:35
999;fixation_cross;999;999;fixation;0;21;1;1;2;8;1;12;2;html-keyboard-response;137;131186;0.0-137.0;9546715;05/05/2020 14:35
999;imgJS/WMF_scramble_22.jpg,imgJS/WMF_scramble_24.jpg,imgJS/WMF_scramble_11.jpg,imgJS/WMF_scramble_4.jpg,imgJS/WMF_scramble_21.jpg,imgJS/WMF_scramble_28.jpg,imgJS/WMF_scramble_8.jpg,imgJS/WMF_scramble_10.jpg,imgJS/WMF_25.jpg,imgJS/WMF_scramble_7.jpg,im;999;999;rsvp_img_15;0;21;1;1;2;8;1;12;2;rsvp_flux;138;132240;0.0-138.0;9546715;05/05/2020 14:35
714.76499992423;"<div style=""font-size:20px;""><p> Avez-vous vu au moins une femme? </p><p> <strong> Oui [O] / Non [N] </strong></p> </div>";999;79;rsvpAnswFem;0;21;1;1;2;8;1;12;2;html-keyboard-response;139;132957;0.0-139.0;9546715;05/05/2020 14:35
999;999;999;999;fullscreenExp;999;999;999;999;999;999;999;999;999;fullscreen;140;132995;0.0-140.0;9546715;05/05/2020 14:35
999;fixation_cross;999;999;fixation;0;22;1;2;2;5;0;9;3;html-keyboard-response;141;133999;0.0-141.0;9546715;05/05/2020 14:35
999;imgJS/WFF_scramble_30.jpg,imgJS/WFF_scramble_11.jpg,imgJS/WFF_scramble_35.jpg,imgJS/WFF_scramble_35.jpg,imgJS/WFF_scramble_13.jpg,imgJS/WFF_8.jpg,imgJS/WFF_scramble_17.jpg,imgJS/WFF_scramble_12.jpg,imgJS/WFF_scramble_25.jpg,imgJS/WMN_80.jpg,imgJS/WFF;999;999;rsvp_img_15;0;22;1;2;2;5;0;9;3;rsvp_flux;142;135054;0.0-142.0;9546715;05/05/2020 14:35
3158.5699999705;"<div style=""font-size:20px;""><p> Avez-vous vu au moins un homme? </p><p> <strong> Oui [O] / Non [N] </strong></p> </div>";999;78;rsvpAnswHom;0;22;1;2;2;5;0;9;3;html-keyboard-response;143;138216;0.0-143.0;9546715;05/05/2020 14:35
999;999;999;999;fullscreenExp;999;999;999;999;999;999;999;999;999;fullscreen;144;138258;0.0-144.0;9546715;05/05/2020 14:35
999;fixation_cross;999;999;fixation;0;23;1;1;2;6;1;10;3;html-keyboard-response;145;139263;0.0-145.0;9546715;05/05/2020 14:35
999;imgJS/WMF_scramble_15.jpg,imgJS/WMF_scramble_24.jpg,imgJS/WMF_scramble_24.jpg,imgJS/WMF_scramble_11.jpg,imgJS/WMF_scramble_7.jpg,imgJS/WMF_scramble_12.jpg,imgJS/WMF_29.jpg,imgJS/WMF_scramble_12.jpg,imgJS/WMF_scramble_29.jpg,imgJS/WMF_scramble_21.jpg,;999;999;rsvp_img_15;0;23;1;1;2;6;1;10;3;rsvp_flux;146;140317;0.0-146.0;9546715;05/05/2020 14:35
1826.6350000631;"<div style=""font-size:20px;""><p> Avez-vous vu au moins une femme? </p><p> <strong> Oui [O] / Non [N] </strong></p> </div>";999;78;rsvpAnswFem;0;23;1;1;2;6;1;10;3;html-keyboard-response;147;142146;0.0-147.0;9546715;05/05/2020 14:35
999;999;999;999;fullscreenExp;999;999;999;999;999;999;999;999;999;fullscreen;148;142184;0.0-148.0;9546715;05/05/2020 14:35
999;fixation_cross;999;999;fixation;0;24;1;1;2;7;1;9;2;html-keyboard-response;149;143189;0.0-149.0;9546715;05/05/2020 14:35
999;imgJS/WMF_scramble_28.jpg,imgJS/WMF_scramble_11.jpg,imgJS/WMF_scramble_9.jpg,imgJS/WMF_scramble_29.jpg,imgJS/WMF_scramble_3.jpg,imgJS/WMF_scramble_6.jpg,imgJS/WMF_scramble_9.jpg,imgJS/WMF_28.jpg,imgJS/WMF_scramble_10.jpg,imgJS/WFN_66.jpg,imgJS/WMF_sc;999;999;rsvp_img_15;0;24;1;1;2;7;1;9;2;rsvp_flux;150;144242;0.0-150.0;9546715;05/05/2020 14:35
891.40500000212;"<div style=""font-size:20px;""><p> Avez-vous vu au moins une femme? </p><p> <strong> Oui [O] / Non [N] </strong></p> </div>";999;79;rsvpAnswFem;0;24;1;1;2;7;1;9;2;html-keyboard-response;151;145136;0.0-151.0;9546715;05/05/2020 14:35
999;999;999;999;fullscreenExp;999;999;999;999;999;999;999;999;999;fullscreen;152;145189;0.0-152.0;9546715;05/05/2020 14:35
999;fixation_cross;999;999;fixation;0;25;1;1;2;6;1;10;2;html-keyboard-response;153;146193;0.0-153.0;9546715;05/05/2020 14:35
999;imgJS/WMF_scramble_22.jpg,imgJS/WMF_scramble_6.jpg,imgJS/WMF_scramble_29.jpg,imgJS/WMF_scramble_6.jpg,imgJS/WMF_scramble_1.jpg,imgJS/WMF_scramble_3.jpg,imgJS/WMF_21.jpg,imgJS/WMF_scramble_23.jpg,imgJS/WMF_scramble_13.jpg,imgJS/WMF_scramble_19.jpg,img;999;999;rsvp_img_15;0;25;1;1;2;6;1;10;2;rsvp_flux;154;147247;0.0-154.0;9546715;05/05/2020 14:35
481.52999999002;"<div style=""font-size:20px;""><p> Avez-vous vu au moins une femme? </p><p> <strong> Oui [O] / Non [N] </strong></p> </div>";999;79;rsvpAnswFem;0;25;1;1;2;6;1;10;2;html-keyboard-response;155;147731;0.0-155.0;9546715;05/05/2020 14:35
999;999;999;999;fullscreenExp;999;999;999;999;999;999;999;999;999;fullscreen;156;147769;0.0-156.0;9546715;05/05/2020 14:35
999;fixation_cross;999;999;fixation;0;26;1;2;2;5;0;9;2;html-keyboard-response;157;148774;0.0-157.0;9546715;05/05/2020 14:35
999;imgJS/WFF_scramble_22.jpg,imgJS/WFF_scramble_23.jpg,imgJS/WFF_scramble_6.jpg,imgJS/WFF_scramble_16.jpg,imgJS/WFF_scramble_34.jpg,imgJS/WFF_24.jpg,imgJS/WFF_scramble_6.jpg,imgJS/WFF_scramble_30.jpg,imgJS/WFF_scramble_14.jpg,imgJS/WFN_22.jpg,imgJS/WFF_;999;999;rsvp_img_15;0;26;1;2;2;5;0;9;2;rsvp_flux;158;149829;0.0-158.0;9546715;05/05/2020 14:35
1081.300000078;"<div style=""font-size:20px;""><p> Avez-vous vu au moins un homme? </p><p> <strong> Oui [O] / Non [N] </strong></p> </div>";999;78;rsvpAnswHom;0;26;1;2;2;5;0;9;2;html-keyboard-response;159;150913;0.0-159.0;9546715;05/05/2020 14:35
999;999;999;999;fullscreenExp;999;999;999;999;999;999;999;999;999;fullscreen;160;150950;0.0-160.0;9546715;05/05/2020 14:35
999;fixation_cross;999;999;fixation;0;27;1;4;2;5;0;9;1;html-keyboard-response;161;151957;0.0-161.0;9546715;05/05/2020 14:35
999;imgJS/WFF_scramble_10.jpg,imgJS/WFF_scramble_12.jpg,imgJS/WFF_scramble_13.jpg,imgJS/WFF_scramble_14.jpg,imgJS/WFF_scramble_30.jpg,imgJS/WFF_7.jpg,imgJS/WFF_scramble_23.jpg,imgJS/WFF_scramble_20.jpg,imgJS/WFF_scramble_18.jpg,imgJS/WMF_10.jpg,imgJS/WFF;999;999;rsvp_img_15;0;27;1;4;2;5;0;9;1;rsvp_flux;162;153009;0.0-162.0;9546715;05/05/2020 14:35
989.70500007272;"<div style=""font-size:20px;""><p> Avez-vous vu au moins un homme? </p><p> <strong> Oui [O] / Non [N] </strong></p> </div>";999;79;rsvpAnswHom;0;27;1;4;2;5;0;9;1;html-keyboard-response;163;154001;0.0-163.0;9546715;05/05/2020 14:35
999;999;999;999;fullscreenExp;999;999;999;999;999;999;999;999;999;fullscreen;164;154050;0.0-164.0;9546715;05/05/2020 14:35
999;fixation_cross;999;999;fixation;0;28;1;3;2;8;3;12;3;html-keyboard-response;165;155055;0.0-165.0;9546715;05/05/2020 14:35
999;imgJS/WMN_scramble_63.jpg,imgJS/WMN_scramble_32.jpg,imgJS/WMN_scramble_19.jpg,imgJS/WMN_scramble_6.jpg,imgJS/WMN_scramble_51.jpg,imgJS/WMN_scramble_75.jpg,imgJS/WMN_scramble_27.jpg,imgJS/WMN_scramble_85.jpg,imgJS/WMN_49.jpg,imgJS/WMN_scramble_15.jpg,;999;999;rsvp_img_15;0;28;1;3;2;8;3;12;3;rsvp_flux;166;156108;0.0-166.0;9546715;05/05/2020 14:35
981.75500007346;"<div style=""font-size:20px;""><p> Avez-vous vu au moins une femme? </p><p> <strong> Oui [O] / Non [N] </strong></p> </div>";999;78;rsvpAnswFem;0;28;1;3;2;8;3;12;3;html-keyboard-response;167;157093;0.0-167.0;9546715;05/05/2020 14:35
999;999;999;999;fullscreenExp;999;999;999;999;999;999;999;999;999;fullscreen;168;157144;0.0-168.0;9546715;05/05/2020 14:35
999;fixation_cross;999;999;fixation;0;29;1;1;2;8;1;10;3;html-keyboard-response;169;158147;0.0-169.0;9546715;05/05/2020 14:35
999;imgJS/WMF_scramble_24.jpg,imgJS/WMF_scramble_10.jpg,imgJS/WMF_scramble_11.jpg,imgJS/WMF_scramble_10.jpg,imgJS/WMF_scramble_16.jpg,imgJS/WMF_scramble_18.jpg,imgJS/WMF_scramble_3.jpg,imgJS/WMF_scramble_4.jpg,imgJS/WMF_14.jpg,imgJS/WMF_scramble_6.jpg,im;999;999;rsvp_img_15;0;29;1;1;2;8;1;10;3;rsvp_flux;170;159201;0.0-170.0;9546715;05/05/2020 14:35
1212.8299999749;"<div style=""font-size:20px;""><p> Avez-vous vu au moins une femme? </p><p> <strong> Oui [O] / Non [N] </strong></p> </div>";999;78;rsvpAnswFem;0;29;1;1;2;8;1;10;3;html-keyboard-response;171;160416;0.0-171.0;9546715;05/05/2020 14:35
999;999;999;999;fullscreenExp;999;999;999;999;999;999;999;999;999;fullscreen;172;160463;0.0-172.0;9546715;05/05/2020 14:35
999;instructions/instructionsDiapo/Slide6.jpg;999;999;instrCondi;1;999;NULL;NULL;1;999;999;999;999;image-keyboard-response;173;164982;0.0-173.0;9546715;05/05/2020 14:35
999;fixation_cross;999;999;fixation;1;0;2;3;1;4;1;6;0;html-keyboard-response;174;165986;0.0-174.0;9546715;05/05/2020 14:35
999;imgJS/WMF_scramble_15.jpg,imgJS/WMF_scramble_10.jpg,imgJS/WMF_scramble_26.jpg,imgJS/WMF_scramble_7.jpg,imgJS/WMF_18.jpg,imgJS/WMF_scramble_10.jpg,imgJS/WFF_31.jpg,imgJS/WMF_scramble_5.jpg,imgJS/WMF_scramble_15.jpg,imgJS/WMF_scramble_13.jpg,imgJS/WMF_;999;999;rsvp_img_15;1;0;2;3;1;4;1;6;0;rsvp_flux;175;167039;0.0-175.0;9546715;05/05/2020 14:35
527.04000007361;"<div style=""font-size:20px;""><p> Avez-vous vu au moins une femme? </p><p> <strong> Oui [O] / Non [N] </strong></p> </div>";999;79;rsvpAnswFem;1;0;2;3;1;4;1;6;0;html-keyboard-response;176;167569;0.0-176.0;9546715;05/05/2020 14:35
999;999;999;999;fullscreenExp;999;999;999;999;999;999;999;999;999;fullscreen;177;167611;0.0-177.0;9546715;05/05/2020 14:35
999;fixation_cross;999;999;fixation;1;1;2;3;1;6;1;10;0;html-keyboard-response;178;168615;0.0-178.0;9546715;05/05/2020 14:35
999;imgJS/WMF_scramble_16.jpg,imgJS/WMF_scramble_14.jpg,imgJS/WMF_scramble_1.jpg,imgJS/WMF_scramble_18.jpg,imgJS/WMF_scramble_22.jpg,imgJS/WMF_scramble_21.jpg,imgJS/WMF_6.jpg,imgJS/WMF_scramble_8.jpg,imgJS/WMF_scramble_9.jpg,imgJS/WMF_scramble_19.jpg,img;999;999;rsvp_img_15;1;1;2;3;1;6;1;10;0;rsvp_flux;179;169667;0.0-179.0;9546715;05/05/2020 14:35
801.36000004131;"<div style=""font-size:20px;""><p> Avez-vous vu au moins une femme? </p><p> <strong> Oui [O] / Non [N] </strong></p> </div>";999;79;rsvpAnswFem;1;1;2;3;1;6;1;10;0;html-keyboard-response;180;170472;0.0-180.0;9546715;05/05/2020 14:35
999;999;999;999;fullscreenExp;999;999;999;999;999;999;999;999;999;fullscreen;181;170509;0.0-181.0;9546715;05/05/2020 14:35
999;fixation_cross;999;999;fixation;1;2;2;5;1;4;3;6;1;html-keyboard-response;182;171513;0.0-182.0;9546715;05/05/2020 14:35
999;imgJS/WMN_scramble_67.jpg,imgJS/WMN_scramble_6.jpg,imgJS/WMN_scramble_77.jpg,imgJS/WMN_scramble_2.jpg,imgJS/WMN_35.jpg,imgJS/WMN_scramble_61.jpg,imgJS/WMF_29.jpg,imgJS/WMN_scramble_88.jpg,imgJS/WMN_scramble_3.jpg,imgJS/WMN_scramble_29.jpg,imgJS/WMN_s;999;999;rsvp_img_15;1;2;2;5;1;4;3;6;1;rsvp_flux;183;172566;0.0-183.0;9546715;05/05/2020 14:35
1026.4599999646;"<div style=""font-size:20px;""><p> Avez-vous vu au moins une femme? </p><p> <strong> Oui [O] / Non [N] </strong></p> </div>";999;78;rsvpAnswFem;1;2;2;5;1;4;3;6;1;html-keyboard-response;184;173595;0.0-184.0;9546715;05/05/2020 14:35
999;999;999;999;fullscreenExp;999;999;999;999;999;999;999;999;999;fullscreen;185;173633;0.0-185.0;9546715;05/05/2020 14:35
999;fixation_cross;999;999;fixation;1;3;2;5;1;4;3;6;1;html-keyboard-response;186;174637;0.0-186.0;9546715;05/05/2020 14:35
999;imgJS/WMN_scramble_6.jpg,imgJS/WMN_scramble_5.jpg,imgJS/WMN_scramble_29.jpg,imgJS/WMN_scramble_22.jpg,imgJS/WMN_69.jpg,imgJS/WMN_scramble_21.jpg,imgJS/WMF_29.jpg,imgJS/WMN_scramble_50.jpg,imgJS/WMN_scramble_66.jpg,imgJS/WMN_scramble_42.jpg,imgJS/WMN_;999;999;rsvp_img_15;1;3;2;5;1;4;3;6;1;rsvp_flux;187;175691;0.0-187.0;9546715;05/05/2020 14:35
1018.3599999873;"<div style=""font-size:20px;""><p> Avez-vous vu au moins une femme? </p><p> <strong> Oui [O] / Non [N] </strong></p> </div>";999;78;rsvpAnswFem;1;3;2;5;1;4;3;6;1;html-keyboard-response;188;176712;0.0-188.0;9546715;05/05/2020 14:35
999;999;999;999;fullscreenExp;999;999;999;999;999;999;999;999;999;fullscreen;189;176757;0.0-189.0;9546715;05/05/2020 14:35
999;fixation_cross;999;999;fixation;1;4;2;5;1;8;3;12;1;html-keyboard-response;190;177761;0.0-190.0;9546715;05/05/2020 14:35
999;imgJS/WMN_scramble_33.jpg,imgJS/WMN_scramble_45.jpg,imgJS/WMN_scramble_66.jpg,imgJS/WMN_scramble_58.jpg,imgJS/WMN_scramble_19.jpg,imgJS/WMN_scramble_89.jpg,imgJS/WMN_scramble_29.jpg,imgJS/WMN_scramble_34.jpg,imgJS/WMN_38.jpg,imgJS/WMN_scramble_12.jpg;999;999;rsvp_img_15;1;4;2;5;1;8;3;12;1;rsvp_flux;191;178814;0.0-191.0;9546715;05/05/2020 14:35
1043.8700000523;"<div style=""font-size:20px;""><p> Avez-vous vu au moins une femme? </p><p> <strong> Oui [O] / Non [N] </strong></p> </div>";999;78;rsvpAnswFem;1;4;2;5;1;8;3;12;1;html-keyboard-response;192;179860;0.0-192.0;9546715;05/05/2020 14:35
999;999;999;999;fullscreenExp;999;999;999;999;999;999;999;999;999;fullscreen;193;179899;0.0-193.0;9546715;05/05/2020 14:35
999;fixation_cross;999;999;fixation;1;5;2;4;1;7;2;11;3;html-keyboard-response;194;180904;0.0-194.0;9546715;05/05/2020 14:35
999;imgJS/WFN_scramble_1.jpg,imgJS/WFN_scramble_86.jpg,imgJS/WFN_scramble_54.jpg,imgJS/WFN_scramble_83.jpg,imgJS/WFN_scramble_23.jpg,imgJS/WFN_scramble_39.jpg,imgJS/WFN_scramble_20.jpg,imgJS/WFN_71.jpg,imgJS/WFN_scramble_75.jpg,imgJS/WFN_scramble_69.jpg,;999;999;rsvp_img_15;1;5;2;4;1;7;2;11;3;rsvp_flux;195;181960;0.0-195.0;9546715;05/05/2020 14:35
1117.8550000768;"<div style=""font-size:20px;""><p> Avez-vous vu au moins un homme? </p><p> <strong> Oui [O] / Non [N] </strong></p> </div>";999;78;rsvpAnswHom;1;5;2;4;1;7;2;11;3;html-keyboard-response;196;183082;0.0-196.0;9546715;05/05/2020 14:35
999;999;999;999;fullscreenExp;999;999;999;999;999;999;999;999;999;fullscreen;197;183133;0.0-197.0;9546715;05/05/2020 14:35
999;fixation_cross;999;999;fixation;1;6;2;3;1;6;1;8;1;html-keyboard-response;198;184137;0.0-198.0;9546715;05/05/2020 14:35
999;imgJS/WMF_scramble_27.jpg,imgJS/WMF_scramble_25.jpg,imgJS/WMF_scramble_24.jpg,imgJS/WMF_scramble_26.jpg,imgJS/WMF_scramble_9.jpg,imgJS/WMF_scramble_7.jpg,imgJS/WMF_6.jpg,imgJS/WMF_scramble_9.jpg,imgJS/WMF_4.jpg,imgJS/WMF_scramble_7.jpg,imgJS/WMF_scra;999;999;rsvp_img_15;1;6;2;3;1;6;1;8;1;rsvp_flux;199;185192;0.0-199.0;9546715;05/05/2020 14:35
764.38499998767;"<div style=""font-size:20px;""><p> Avez-vous vu au moins une femme? </p><p> <strong> Oui [O] / Non [N] </strong></p> </div>";999;78;rsvpAnswFem;1;6;2;3;1;6;1;8;1;html-keyboard-response;200;185959;0.0-200.0;9546715;05/05/2020 14:35
999;999;999;999;fullscreenExp;999;999;999;999;999;999;999;999;999;fullscreen;201;185999;0.0-201.0;9546715;05/05/2020 14:35
999;fixation_cross;999;999;fixation;1;7;2;6;1;5;2;7;1;html-keyboard-response;202;187004;0.0-202.0;9546715;05/05/2020 14:35
999;imgJS/WFN_scramble_83.jpg,imgJS/WFN_scramble_74.jpg,imgJS/WFN_scramble_37.jpg,imgJS/WFN_scramble_36.jpg,imgJS/WFN_scramble_29.jpg,imgJS/WFN_54.jpg,imgJS/WFN_scramble_20.jpg,imgJS/WMF_23.jpg,imgJS/WFN_scramble_51.jpg,imgJS/WFN_scramble_8.jpg,imgJS/WFN;999;999;rsvp_img_15;1;7;2;6;1;5;2;7;1;rsvp_flux;203;188057;0.0-203.0;9546715;05/05/2020 14:35
1350.83999997;"<div style=""font-size:20px;""><p> Avez-vous vu au moins un homme? </p><p> <strong> Oui [O] / Non [N] </strong></p> </div>";999;79;rsvpAnswHom;1;7;2;6;1;5;2;7;1;html-keyboard-response;204;189410;0.0-204.0;9546715;05/05/2020 14:35
999;999;999;999;fullscreenExp;999;999;999;999;999;999;999;999;999;fullscreen;205;189452;0.0-205.0;9546715;05/05/2020 14:35
999;fixation_cross;999;999;fixation;1;8;2;3;1;7;3;9;2;html-keyboard-response;206;190456;0.0-206.0;9546715;05/05/2020 14:35
999;imgJS/WMN_scramble_56.jpg,imgJS/WMN_scramble_86.jpg,imgJS/WMN_scramble_89.jpg,imgJS/WMN_scramble_23.jpg,imgJS/WMN_scramble_83.jpg,imgJS/WMN_scramble_2.jpg,imgJS/WMN_scramble_6.jpg,imgJS/WMN_59.jpg,imgJS/WMN_scramble_59.jpg,imgJS/WFN_23.jpg,imgJS/WMN_;999;999;rsvp_img_15;1;8;2;3;1;7;3;9;2;rsvp_flux;207;191510;0.0-207.0;9546715;05/05/2020 14:35
886.06500008609;"<div style=""font-size:20px;""><p> Avez-vous vu au moins une femme? </p><p> <strong> Oui [O] / Non [N] </strong></p> </div>";999;79;rsvpAnswFem;1;8;2;3;1;7;3;9;2;html-keyboard-response;208;192399;0.0-208.0;9546715;05/05/2020 14:35
999;999;999;999;fullscreenExp;999;999;999;999;999;999;999;999;999;fullscreen;209;192439;0.0-209.0;9546715;05/05/2020 14:35
999;fixation_cross;999;999;fixation;1;9;2;5;1;8;3;10;1;html-keyboard-response;210;193443;0.0-210.0;9546715;05/05/2020 14:35
999;imgJS/WMN_scramble_76.jpg,imgJS/WMN_scramble_85.jpg,imgJS/WMN_scramble_59.jpg,imgJS/WMN_scramble_19.jpg,imgJS/WMN_scramble_80.jpg,imgJS/WMN_scramble_2.jpg,imgJS/WMN_scramble_38.jpg,imgJS/WMN_scramble_90.jpg,imgJS/WMN_4.jpg,imgJS/WMN_scramble_30.jpg,i;999;999;rsvp_img_15;1;9;2;5;1;8;3;10;1;rsvp_flux;211;194496;0.0-211.0;9546715;05/05/2020 14:35
1483.6999999825;"<div style=""font-size:20px;""><p> Avez-vous vu au moins une femme? </p><p> <strong> Oui [O] / Non [N] </strong></p> </div>";999;78;rsvpAnswFem;1;9;2;5;1;8;3;10;1;html-keyboard-response;212;195983;0.0-212.0;9546715;05/05/2020 14:35
999;999;999;999;fullscreenExp;999;999;999;999;999;999;999;999;999;fullscreen;213;196020;0.0-213.0;9546715;05/05/2020 14:35
999;fixation_cross;999;999;fixation;1;10;2;6;1;7;2;9;0;html-keyboard-response;214;197025;0.0-214.0;9546715;05/05/2020 14:35
999;imgJS/WFN_scramble_20.jpg,imgJS/WFN_scramble_17.jpg,imgJS/WFN_scramble_83.jpg,imgJS/WFN_scramble_44.jpg,imgJS/WFN_scramble_33.jpg,imgJS/WFN_scramble_6.jpg,imgJS/WFN_scramble_19.jpg,imgJS/WFN_10.jpg,imgJS/WFN_scramble_21.jpg,imgJS/WFF_8.jpg,imgJS/WFN_;999;999;rsvp_img_15;1;10;2;6;1;7;2;9;0;rsvp_flux;215;198078;0.0-215.0;9546715;05/05/2020 14:35
3491.2750000367;"<div style=""font-size:20px;""><p> Avez-vous vu au moins un homme? </p><p> <strong> Oui [O] / Non [N] </strong></p> </div>";999;78;rsvpAnswHom;1;10;2;6;1;7;2;9;0;html-keyboard-response;216;201572;0.0-216.0;9546715;05/05/2020 14:35
999;999;999;999;fullscreenExp;999;999;999;999;999;999;999;999;999;fullscreen;217;201610;0.0-217.0;9546715;05/05/2020 14:35
999;fixation_cross;999;999;fixation;1;11;2;5;1;5;3;7;1;html-keyboard-response;218;202617;0.0-218.0;9546715;05/05/2020 14:35
999;imgJS/WMN_scramble_59.jpg,imgJS/WMN_scramble_26.jpg,imgJS/WMN_scramble_85.jpg,imgJS/WMN_scramble_40.jpg,imgJS/WMN_scramble_60.jpg,imgJS/WMN_20.jpg,imgJS/WMN_scramble_8.jpg,imgJS/WMF_13.jpg,imgJS/WMN_scramble_78.jpg,imgJS/WMN_scramble_1.jpg,imgJS/WMN_;999;999;rsvp_img_15;1;11;2;5;1;5;3;7;1;rsvp_flux;219;203671;0.0-219.0;9546715;05/05/2020 14:35
1037.3949999921;"<div style=""font-size:20px;""><p> Avez-vous vu au moins une femme? </p><p> <strong> Oui [O] / Non [N] </strong></p> </div>";999;78;rsvpAnswFem;1;11;2;5;1;5;3;7;1;html-keyboard-response;220;204711;0.0-220.0;9546715;05/05/2020 14:35
999;999;999;999;fullscreenExp;999;999;999;999;999;999;999;999;999;fullscreen;221;204756;0.0-221.0;9546715;05/05/2020 14:35
999;fixation_cross;999;999;fixation;1;12;2;5;1;6;3;8;0;html-keyboard-response;222;205761;0.0-222.0;9546715;05/05/2020 14:35
999;imgJS/WMN_scramble_21.jpg,imgJS/WMN_scramble_16.jpg,imgJS/WMN_scramble_54.jpg,imgJS/WMN_scramble_13.jpg,imgJS/WMN_scramble_79.jpg,imgJS/WMN_scramble_43.jpg,imgJS/WMN_50.jpg,imgJS/WMN_scramble_88.jpg,imgJS/WFF_5.jpg,imgJS/WMN_scramble_84.jpg,imgJS/WMN;999;999;rsvp_img_15;1;12;2;5;1;6;3;8;0;rsvp_flux;223;206814;0.0-223.0;9546715;05/05/2020 14:35
339.2800000729;"<div style=""font-size:20px;""><p> Avez-vous vu au moins une femme? </p><p> <strong> Oui [O] / Non [N] </strong></p> </div>";999;79;rsvpAnswFem;1;12;2;5;1;6;3;8;0;html-keyboard-response;224;207156;0.0-224.0;9546715;05/05/2020 14:35
999;999;999;999;fullscreenExp;999;999;999;999;999;999;999;999;999;fullscreen;225;207196;0.0-225.0;9546715;05/05/2020 14:35
999;fixation_cross;999;999;fixation;1;13;2;5;1;8;3;12;1;html-keyboard-response;226;208201;0.0-226.0;9546715;05/05/2020 14:35
999;imgJS/WMN_scramble_47.jpg,imgJS/WMN_scramble_8.jpg,imgJS/WMN_scramble_12.jpg,imgJS/WMN_scramble_6.jpg,imgJS/WMN_scramble_70.jpg,imgJS/WMN_scramble_4.jpg,imgJS/WMN_scramble_75.jpg,imgJS/WMN_scramble_89.jpg,imgJS/WMN_72.jpg,imgJS/WMN_scramble_75.jpg,im;999;999;rsvp_img_15;1;13;2;5;1;8;3;12;1;rsvp_flux;227;209255;0.0-227.0;9546715;05/05/2020 14:35
685.42999995407;"<div style=""font-size:20px;""><p> Avez-vous vu au moins une femme? </p><p> <strong> Oui [O] / Non [N] </strong></p> </div>";999;78;rsvpAnswFem;1;13;2;5;1;8;3;12;1;html-keyboard-response;228;209943;0.0-228.0;9546715;05/05/2020 14:35
999;999;999;999;fullscreenExp;999;999;999;999;999;999;999;999;999;fullscreen;229;209983;0.0-229.0;9546715;05/05/2020 14:35
999;fixation_cross;999;999;fixation;1;14;2;6;1;6;2;8;0;html-keyboard-response;230;210987;0.0-230.0;9546715;05/05/2020 14:35
999;imgJS/WFN_scramble_38.jpg,imgJS/WFN_scramble_17.jpg,imgJS/WFN_scramble_38.jpg,imgJS/WFN_scramble_16.jpg,imgJS/WFN_scramble_8.jpg,imgJS/WFN_scramble_80.jpg,imgJS/WFN_49.jpg,imgJS/WFN_scramble_24.jpg,imgJS/WFF_35.jpg,imgJS/WFN_scramble_44.jpg,imgJS/WFN;999;999;rsvp_img_15;1;14;2;6;1;6;2;8;0;rsvp_flux;231;212041;0.0-231.0;9546715;05/05/2020 14:35
860.37999996915;"<div style=""font-size:20px;""><p> Avez-vous vu au moins un homme? </p><p> <strong> Oui [O] / Non [N] </strong></p> </div>";999;78;rsvpAnswHom;1;14;2;6;1;6;2;8;0;html-keyboard-response;232;212905;0.0-232.0;9546715;05/05/2020 14:35
999;999;999;999;fullscreenExp;999;999;999;999;999;999;999;999;999;fullscreen;233;212944;0.0-233.0;9546715;05/05/2020 14:35
999;fixation_cross;999;999;fixation;1;15;2;6;1;4;2;8;1;html-keyboard-response;234;213948;0.0-234.0;9546715;05/05/2020 14:35
999;imgJS/WFN_scramble_66.jpg,imgJS/WFN_scramble_9.jpg,imgJS/WFN_scramble_25.jpg,imgJS/WFN_scramble_61.jpg,imgJS/WFN_75.jpg,imgJS/WFN_scramble_14.jpg,imgJS/WFN_scramble_79.jpg,imgJS/WFN_scramble_61.jpg,imgJS/WMF_16.jpg,imgJS/WFN_scramble_34.jpg,imgJS/WFN;999;999;rsvp_img_15;1;15;2;6;1;4;2;8;1;rsvp_flux;235;215001;0.0-235.0;9546715;05/05/2020 14:35
1097.5599999074;"<div style=""font-size:20px;""><p> Avez-vous vu au moins un homme? </p><p> <strong> Oui [O] / Non [N] </strong></p> </div>";999;78;rsvpAnswHom;1;15;2;6;1;4;2;8;1;html-keyboard-response;236;216101;0.0-236.0;9546715;05/05/2020 14:35
999;999;999;999;fullscreenExp;999;999;999;999;999;999;999;999;999;fullscreen;237;216143;0.0-237.0;9546715;05/05/2020 14:35
999;fixation_cross;999;999;fixation;1;16;2;6;1;8;2;12;1;html-keyboard-response;238;217146;0.0-238.0;9546715;05/05/2020 14:35
999;imgJS/WFN_scramble_47.jpg,imgJS/WFN_scramble_63.jpg,imgJS/WFN_scramble_61.jpg,imgJS/WFN_scramble_46.jpg,imgJS/WFN_scramble_48.jpg,imgJS/WFN_scramble_1.jpg,imgJS/WFN_scramble_81.jpg,imgJS/WFN_scramble_8.jpg,imgJS/WFN_77.jpg,imgJS/WFN_scramble_75.jpg,i;999;999;rsvp_img_15;1;16;2;6;1;8;2;12;1;rsvp_flux;239;218200;0.0-239.0;9546715;05/05/2020 14:35
1559.7699999344;"<div style=""font-size:20px;""><p> Avez-vous vu au moins un homme? </p><p> <strong> Oui [O] / Non [N] </strong></p> </div>";999;79;rsvpAnswHom;1;16;2;6;1;8;2;12;1;html-keyboard-response;240;219763;0.0-240.0;9546715;05/05/2020 14:35
999;999;999;999;fullscreenExp;999;999;999;999;999;999;999;999;999;fullscreen;241;219803;0.0-241.0;9546715;05/05/2020 14:35
999;fixation_cross;999;999;fixation;1;17;2;6;1;8;2;12;1;html-keyboard-response;242;220813;0.0-242.0;9546715;05/05/2020 14:35
999;imgJS/WFN_scramble_19.jpg,imgJS/WFN_scramble_85.jpg,imgJS/WFN_scramble_15.jpg,imgJS/WFN_scramble_77.jpg,imgJS/WFN_scramble_52.jpg,imgJS/WFN_scramble_25.jpg,imgJS/WFN_scramble_14.jpg,imgJS/WFN_scramble_7.jpg,imgJS/WFN_73.jpg,imgJS/WFN_scramble_66.jpg,;999;999;rsvp_img_15;1;17;2;6;1;8;2;12;1;rsvp_flux;243;221866;0.0-243.0;9546715;05/05/2020 14:35
2269.8899999959;"<div style=""font-size:20px;""><p> Avez-vous vu au moins un homme? </p><p> <strong> Oui [O] / Non [N] </strong></p> </div>";999;79;rsvpAnswHom;1;17;2;6;1;8;2;12;1;html-keyboard-response;244;224140;0.0-244.0;9546715;05/05/2020 14:35
999;999;999;999;fullscreenExp;999;999;999;999;999;999;999;999;999;fullscreen;245;224185;0.0-245.0;9546715;05/05/2020 14:35
999;fixation_cross;999;999;fixation;1;18;2;6;1;5;2;7;1;html-keyboard-response;246;225189;0.0-246.0;9546715;05/05/2020 14:35
999;imgJS/WFN_scramble_30.jpg,imgJS/WFN_scramble_64.jpg,imgJS/WFN_scramble_33.jpg,imgJS/WFN_scramble_26.jpg,imgJS/WFN_scramble_51.jpg,imgJS/WFN_35.jpg,imgJS/WFN_scramble_59.jpg,imgJS/WMF_10.jpg,imgJS/WFN_scramble_32.jpg,imgJS/WFN_scramble_78.jpg,imgJS/WF;999;999;rsvp_img_15;1;18;2;6;1;5;2;7;1;rsvp_flux;247;226242;0.0-247.0;9546715;05/05/2020 14:35
1278.3899999922;"<div style=""font-size:20px;""><p> Avez-vous vu au moins un homme? </p><p> <strong> Oui [O] / Non [N] </strong></p> </div>";999;79;rsvpAnswHom;1;18;2;6;1;5;2;7;1;html-keyboard-response;248;227523;0.0-248.0;9546715;05/05/2020 14:35
999;999;999;999;fullscreenExp;999;999;999;999;999;999;999;999;999;fullscreen;249;227565;0.0-249.0;9546715;05/05/2020 14:35
999;fixation_cross;999;999;fixation;1;19;2;4;1;8;0;12;0;html-keyboard-response;250;228569;0.0-250.0;9546715;05/05/2020 14:35
999;imgJS/WFF_scramble_33.jpg,imgJS/WFF_scramble_11.jpg,imgJS/WFF_scramble_14.jpg,imgJS/WFF_scramble_3.jpg,imgJS/WFF_scramble_24.jpg,imgJS/WFF_scramble_32.jpg,imgJS/WFF_scramble_19.jpg,imgJS/WFF_scramble_6.jpg,imgJS/WFF_1.jpg,imgJS/WFF_scramble_16.jpg,im;999;999;rsvp_img_15;1;19;2;4;1;8;0;12;0;rsvp_flux;251;229622;0.0-251.0;9546715;05/05/2020 14:35
1384.4250000548;"<div style=""font-size:20px;""><p> Avez-vous vu au moins un homme? </p><p> <strong> Oui [O] / Non [N] </strong></p> </div>";999;78;rsvpAnswHom;1;19;2;4;1;8;0;12;0;html-keyboard-response;252;231009;0.0-252.0;9546715;05/05/2020 14:35
999;999;999;999;fullscreenExp;999;999;999;999;999;999;999;999;999;fullscreen;253;231050;0.0-253.0;9546715;05/05/2020 14:35
999;fixation_cross;999;999;fixation;1;20;2;5;1;7;3;11;1;html-keyboard-response;254;232054;0.0-254.0;9546715;05/05/2020 14:35
999;imgJS/WMN_scramble_51.jpg,imgJS/WMN_scramble_26.jpg,imgJS/WMN_scramble_13.jpg,imgJS/WMN_scramble_35.jpg,imgJS/WMN_scramble_66.jpg,imgJS/WMN_scramble_4.jpg,imgJS/WMN_scramble_43.jpg,imgJS/WMN_14.jpg,imgJS/WMN_scramble_81.jpg,imgJS/WMN_scramble_13.jpg,;999;999;rsvp_img_15;1;20;2;5;1;7;3;11;1;rsvp_flux;255;233111;0.0-255.0;9546715;05/05/2020 14:35
1608.1750000594;"<div style=""font-size:20px;""><p> Avez-vous vu au moins une femme? </p><p> <strong> Oui [O] / Non [N] </strong></p> </div>";999;78;rsvpAnswFem;1;20;2;5;1;7;3;11;1;html-keyboard-response;256;234722;0.0-256.0;9546715;05/05/2020 14:35
999;999;999;999;fullscreenExp;999;999;999;999;999;999;999;999;999;fullscreen;257;234763;0.0-257.0;9546715;05/05/2020 14:35
999;fixation_cross;999;999;fixation;1;21;2;4;1;5;2;7;3;html-keyboard-response;258;235767;0.0-258.0;9546715;05/05/2020 14:35
999;imgJS/WFN_scramble_66.jpg,imgJS/WFN_scramble_1.jpg,imgJS/WFN_scramble_76.jpg,imgJS/WFN_scramble_74.jpg,imgJS/WFN_scramble_11.jpg,imgJS/WFN_45.jpg,imgJS/WFN_scramble_53.jpg,imgJS/WMN_46.jpg,imgJS/WFN_scramble_38.jpg,imgJS/WFN_scramble_82.jpg,imgJS/WFN;999;999;rsvp_img_15;1;21;2;4;1;5;2;7;3;rsvp_flux;259;236821;0.0-259.0;9546715;05/05/2020 14:35
784.68499996234;"<div style=""font-size:20px;""><p> Avez-vous vu au moins un homme? </p><p> <strong> Oui [O] / Non [N] </strong></p> </div>";999;78;rsvpAnswHom;1;21;2;4;1;5;2;7;3;html-keyboard-response;260;237608;0.0-260.0;9546715;05/05/2020 14:35
999;999;999;999;fullscreenExp;999;999;999;999;999;999;999;999;999;fullscreen;261;237647;0.0-261.0;9546715;05/05/2020 14:35
999;fixation_cross;999;999;fixation;1;22;2;5;1;7;3;9;0;html-keyboard-response;262;238651;0.0-262.0;9546715;05/05/2020 14:35
999;imgJS/WMN_scramble_47.jpg,imgJS/WMN_scramble_67.jpg,imgJS/WMN_scramble_59.jpg,imgJS/WMN_scramble_27.jpg,imgJS/WMN_scramble_10.jpg,imgJS/WMN_scramble_6.jpg,imgJS/WMN_scramble_82.jpg,imgJS/WMN_43.jpg,imgJS/WMN_scramble_88.jpg,imgJS/WFF_36.jpg,imgJS/WMN;999;999;rsvp_img_15;1;22;2;5;1;7;3;9;0;rsvp_flux;263;239705;0.0-263.0;9546715;05/05/2020 14:35
953.43500003219;"<div style=""font-size:20px;""><p> Avez-vous vu au moins une femme? </p><p> <strong> Oui [O] / Non [N] </strong></p> </div>";999;79;rsvpAnswFem;1;22;2;5;1;7;3;9;0;html-keyboard-response;264;240662;0.0-264.0;9546715;05/05/2020 14:35
999;999;999;999;fullscreenExp;999;999;999;999;999;999;999;999;999;fullscreen;265;240702;0.0-265.0;9546715;05/05/2020 14:35
999;fixation_cross;999;999;fixation;1;23;2;6;1;8;2;10;1;html-keyboard-response;266;241708;0.0-266.0;9546715;05/05/2020 14:35
999;imgJS/WFN_scramble_16.jpg,imgJS/WFN_scramble_53.jpg,imgJS/WFN_scramble_21.jpg,imgJS/WFN_scramble_86.jpg,imgJS/WFN_scramble_33.jpg,imgJS/WFN_scramble_39.jpg,imgJS/WFN_scramble_50.jpg,imgJS/WFN_scramble_1.jpg,imgJS/WFN_56.jpg,imgJS/WFN_scramble_26.jpg,;999;999;rsvp_img_15;1;23;2;6;1;8;2;10;1;rsvp_flux;267;242763;0.0-267.0;9546715;05/05/2020 14:35
969.7500000475;"<div style=""font-size:20px;""><p> Avez-vous vu au moins un homme? </p><p> <strong> Oui [O] / Non [N] </strong></p> </div>";999;79;rsvpAnswHom;1;23;2;6;1;8;2;10;1;html-keyboard-response;268;243735;0.0-268.0;9546715;05/05/2020 14:35
999;999;999;999;fullscreenExp;999;999;999;999;999;999;999;999;999;fullscreen;269;243782;0.0-269.0;9546715;05/05/2020 14:35
999;fixation_cross;999;999;fixation;1;24;2;6;1;5;2;9;0;html-keyboard-response;270;244786;0.0-270.0;9546715;05/05/2020 14:35
999;imgJS/WFN_scramble_27.jpg,imgJS/WFN_scramble_43.jpg,imgJS/WFN_scramble_19.jpg,imgJS/WFN_scramble_1.jpg,imgJS/WFN_scramble_12.jpg,imgJS/WFN_69.jpg,imgJS/WFN_scramble_30.jpg,imgJS/WFN_scramble_45.jpg,imgJS/WFN_scramble_20.jpg,imgJS/WFF_35.jpg,imgJS/WFN;999;999;rsvp_img_15;1;24;2;6;1;5;2;9;0;rsvp_flux;271;245841;0.0-271.0;9546715;05/05/2020 14:35
1457.7500000596;"<div style=""font-size:20px;""><p> Avez-vous vu au moins un homme? </p><p> <strong> Oui [O] / Non [N] </strong></p> </div>";999;78;rsvpAnswHom;1;24;2;6;1;5;2;9;0;html-keyboard-response;272;247301;0.0-272.0;9546715;05/05/2020 14:35
999;999;999;999;fullscreenExp;999;999;999;999;999;999;999;999;999;fullscreen;273;247340;0.0-273.0;9546715;05/05/2020 14:35
999;fixation_cross;999;999;fixation;1;25;2;4;1;6;2;10;3;html-keyboard-response;274;248347;0.0-274.0;9546715;05/05/2020 14:35
999;imgJS/WFN_scramble_65.jpg,imgJS/WFN_scramble_64.jpg,imgJS/WFN_scramble_26.jpg,imgJS/WFN_scramble_36.jpg,imgJS/WFN_scramble_82.jpg,imgJS/WFN_scramble_56.jpg,imgJS/WFN_67.jpg,imgJS/WFN_scramble_2.jpg,imgJS/WFN_scramble_21.jpg,imgJS/WFN_scramble_36.jpg,;999;999;rsvp_img_15;1;25;2;4;1;6;2;10;3;rsvp_flux;275;249402;0.0-275.0;9546715;05/05/2020 14:35
825.51999995485;"<div style=""font-size:20px;""><p> Avez-vous vu au moins un homme? </p><p> <strong> Oui [O] / Non [N] </strong></p> </div>";999;79;rsvpAnswHom;1;25;2;4;1;6;2;10;3;html-keyboard-response;276;250231;0.0-276.0;9546715;05/05/2020 14:35
999;999;999;999;fullscreenExp;999;999;999;999;999;999;999;999;999;fullscreen;277;250271;0.0-277.0;9546715;05/05/2020 14:35
999;fixation_cross;999;999;fixation;1;26;2;6;1;7;2;9;0;html-keyboard-response;278;251274;0.0-278.0;9546715;05/05/2020 14:35
999;imgJS/WFN_scramble_54.jpg,imgJS/WFN_scramble_16.jpg,imgJS/WFN_scramble_78.jpg,imgJS/WFN_scramble_52.jpg,imgJS/WFN_scramble_69.jpg,imgJS/WFN_scramble_31.jpg,imgJS/WFN_scramble_17.jpg,imgJS/WFN_38.jpg,imgJS/WFN_scramble_23.jpg,imgJS/WFF_19.jpg,imgJS/WF;999;999;rsvp_img_15;1;26;2;6;1;7;2;9;0;rsvp_flux;279;252328;0.0-279.0;9546715;05/05/2020 14:35
949.29000001866;"<div style=""font-size:20px;""><p> Avez-vous vu au moins un homme? </p><p> <strong> Oui [O] / Non [N] </strong></p> </div>";999;78;rsvpAnswHom;1;26;2;6;1;7;2;9;0;html-keyboard-response;280;253280;0.0-280.0;9546715;05/05/2020 14:35
999;999;999;999;fullscreenExp;999;999;999;999;999;999;999;999;999;fullscreen;281;253319;0.0-281.0;9546715;05/05/2020 14:35
999;fixation_cross;999;999;fixation;1;27;2;3;1;8;1;10;0;html-keyboard-response;282;254324;0.0-282.0;9546715;05/05/2020 14:35
999;imgJS/WMF_scramble_19.jpg,imgJS/WMF_scramble_22.jpg,imgJS/WMF_scramble_24.jpg,imgJS/WMF_scramble_21.jpg,imgJS/WMF_scramble_7.jpg,imgJS/WMF_scramble_25.jpg,imgJS/WMF_scramble_5.jpg,imgJS/WMF_scramble_20.jpg,imgJS/WMF_22.jpg,imgJS/WMF_scramble_21.jpg,i;999;999;rsvp_img_15;1;27;2;3;1;8;1;10;0;rsvp_flux;283;255379;0.0-283.0;9546715;05/05/2020 14:35
524.55500001088;"<div style=""font-size:20px;""><p> Avez-vous vu au moins une femme? </p><p> <strong> Oui [O] / Non [N] </strong></p> </div>";999;79;rsvpAnswFem;1;27;2;3;1;8;1;10;0;html-keyboard-response;284;255907;0.0-284.0;9546715;05/05/2020 14:35
999;999;999;999;fullscreenExp;999;999;999;999;999;999;999;999;999;fullscreen;285;255945;0.0-285.0;9546715;05/05/2020 14:35
999;fixation_cross;999;999;fixation;1;28;2;5;1;8;3;12;1;html-keyboard-response;286;256950;0.0-286.0;9546715;05/05/2020 14:35
999;imgJS/WMN_scramble_48.jpg,imgJS/WMN_scramble_58.jpg,imgJS/WMN_scramble_86.jpg,imgJS/WMN_scramble_84.jpg,imgJS/WMN_scramble_6.jpg,imgJS/WMN_scramble_45.jpg,imgJS/WMN_scramble_65.jpg,imgJS/WMN_scramble_63.jpg,imgJS/WMN_91.jpg,imgJS/WMN_scramble_86.jpg,;999;999;rsvp_img_15;1;28;2;5;1;8;3;12;1;rsvp_flux;287;258004;0.0-287.0;9546715;05/05/2020 14:35
1892.969999928;"<div style=""font-size:20px;""><p> Avez-vous vu au moins une femme? </p><p> <strong> Oui [O] / Non [N] </strong></p> </div>";999;78;rsvpAnswFem;1;28;2;5;1;8;3;12;1;html-keyboard-response;288;259899;0.0-288.0;9546715;05/05/2020 14:35
999;999;999;999;fullscreenExp;999;999;999;999;999;999;999;999;999;fullscreen;289;259940;0.0-289.0;9546715;05/05/2020 14:35
999;fixation_cross;999;999;fixation;1;29;2;4;1;8;2;12;3;html-keyboard-response;290;260944;0.0-290.0;9546715;05/05/2020 14:35
999;imgJS/WFN_scramble_24.jpg,imgJS/WFN_scramble_46.jpg,imgJS/WFN_scramble_62.jpg,imgJS/WFN_scramble_7.jpg,imgJS/WFN_scramble_17.jpg,imgJS/WFN_scramble_75.jpg,imgJS/WFN_scramble_50.jpg,imgJS/WFN_scramble_40.jpg,imgJS/WFN_65.jpg,imgJS/WFN_scramble_47.jpg,;999;999;rsvp_img_15;1;29;2;4;1;8;2;12;3;rsvp_flux;291;261998;0.0-291.0;9546715;05/05/2020 14:35
1067.6200001035;"<div style=""font-size:20px;""><p> Avez-vous vu au moins un homme? </p><p> <strong> Oui [O] / Non [N] </strong></p> </div>";999;79;rsvpAnswHom;1;29;2;4;1;8;2;12;3;html-keyboard-response;292;263068;0.0-292.0;9546715;05/05/2020 14:35
999;999;999;999;fullscreenExp;999;999;999;999;999;999;999;999;999;fullscreen;293;263107;0.0-293.0;9546715;05/05/2020 14:35
999;instructions/instructionsDiapo/Slide7.jpg;999;999;instrCondi;2;999;NULL;NULL;2;999;999;999;999;image-keyboard-response;294;273930;0.0-294.0;9546715;05/05/2020 14:35
999;fixation_cross;999;999;fixation;2;0;2;4;2;7;2;11;2;html-keyboard-response;295;274933;0.0-295.0;9546715;05/05/2020 14:35
999;imgJS/WFN_scramble_3.jpg,imgJS/WFN_scramble_42.jpg,imgJS/WFN_scramble_80.jpg,imgJS/WFN_scramble_31.jpg,imgJS/WFN_scramble_70.jpg,imgJS/WFN_scramble_21.jpg,imgJS/WFN_scramble_62.jpg,imgJS/WFN_68.jpg,imgJS/WFN_scramble_27.jpg,imgJS/WFN_scramble_13.jpg,;999;999;rsvp_img_15;2;0;2;4;2;7;2;11;2;rsvp_flux;296;275988;0.0-296.0;9546715;05/05/2020 14:35
3405.5200000294;"<div style=""font-size:20px;""><p> Avez-vous vu au moins un homme? </p><p> <strong> Oui [O] / Non [N] </strong></p> </div>";999;78;rsvpAnswHom;2;0;2;4;2;7;2;11;2;html-keyboard-response;297;279396;0.0-297.0;9546715;05/05/2020 14:35
999;999;999;999;fullscreenExp;999;999;999;999;999;999;999;999;999;fullscreen;298;279436;0.0-298.0;9546715;05/05/2020 14:35
999;fixation_cross;999;999;fixation;2;1;2;5;2;8;3;12;0;html-keyboard-response;299;280441;0.0-299.0;9546715;05/05/2020 14:35
999;imgJS/WMN_scramble_65.jpg,imgJS/WMN_scramble_74.jpg,imgJS/WMN_scramble_56.jpg,imgJS/WMN_scramble_24.jpg,imgJS/WMN_scramble_28.jpg,imgJS/WMN_scramble_15.jpg,imgJS/WMN_scramble_52.jpg,imgJS/WMN_scramble_72.jpg,imgJS/WMN_16.jpg,imgJS/WMN_scramble_84.jpg;999;999;rsvp_img_15;2;1;2;5;2;8;3;12;0;rsvp_flux;300;281495;0.0-300.0;9546715;05/05/2020 14:35
705.57499991264;"<div style=""font-size:20px;""><p> Avez-vous vu au moins une femme? </p><p> <strong> Oui [O] / Non [N] </strong></p> </div>";999;79;rsvpAnswFem;2;1;2;5;2;8;3;12;0;html-keyboard-response;301;282204;0.0-301.0;9546715;05/05/2020 14:35
999;999;999;999;fullscreenExp;999;999;999;999;999;999;999;999;999;fullscreen;302;282251;0.0-302.0;9546715;05/05/2020 14:35
999;fixation_cross;999;999;fixation;2;2;2;6;2;8;2;10;0;html-keyboard-response;303;283255;0.0-303.0;9546715;05/05/2020 14:35
999;imgJS/WFN_scramble_33.jpg,imgJS/WFN_scramble_13.jpg,imgJS/WFN_scramble_5.jpg,imgJS/WFN_scramble_58.jpg,imgJS/WFN_scramble_64.jpg,imgJS/WFN_scramble_42.jpg,imgJS/WFN_scramble_38.jpg,imgJS/WFN_scramble_58.jpg,imgJS/WFN_16.jpg,imgJS/WFN_scramble_76.jpg,;999;999;rsvp_img_15;2;2;2;6;2;8;2;10;0;rsvp_flux;304;284309;0.0-304.0;9546715;05/05/2020 14:35
607.96999989543;"<div style=""font-size:20px;""><p> Avez-vous vu au moins un homme? </p><p> <strong> Oui [O] / Non [N] </strong></p> </div>";999;78;rsvpAnswHom;2;2;2;6;2;8;2;10;0;html-keyboard-response;305;284920;0.0-305.0;9546715;05/05/2020 14:35
999;999;999;999;fullscreenExp;999;999;999;999;999;999;999;999;999;fullscreen;306;284960;0.0-306.0;9546715;05/05/2020 14:35
999;fixation_cross;999;999;fixation;2;3;2;5;2;8;3;12;0;html-keyboard-response;307;285965;0.0-307.0;9546715;05/05/2020 14:35
999;imgJS/WMN_scramble_24.jpg,imgJS/WMN_scramble_89.jpg,imgJS/WMN_scramble_55.jpg,imgJS/WMN_scramble_8.jpg,imgJS/WMN_scramble_66.jpg,imgJS/WMN_scramble_32.jpg,imgJS/WMN_scramble_70.jpg,imgJS/WMN_scramble_42.jpg,imgJS/WMN_61.jpg,imgJS/WMN_scramble_37.jpg,;999;999;rsvp_img_15;2;3;2;5;2;8;3;12;0;rsvp_flux;308;287018;0.0-308.0;9546715;05/05/2020 14:35
1537.3200000031;"<div style=""font-size:20px;""><p> Avez-vous vu au moins une femme? </p><p> <strong> Oui [O] / Non [N] </strong></p> </div>";999;78;rsvpAnswFem;2;3;2;5;2;8;3;12;0;html-keyboard-response;309;288558;0.0-309.0;9546715;05/05/2020 14:35
999;999;999;999;fullscreenExp;999;999;999;999;999;999;999;999;999;fullscreen;310;288597;0.0-310.0;9546715;05/05/2020 14:35
999;fixation_cross;999;999;fixation;2;4;2;6;2;7;2;9;0;html-keyboard-response;311;289602;0.0-311.0;9546715;05/05/2020 14:35
999;imgJS/WFN_scramble_72.jpg,imgJS/WFN_scramble_73.jpg,imgJS/WFN_scramble_61.jpg,imgJS/WFN_scramble_45.jpg,imgJS/WFN_scramble_54.jpg,imgJS/WFN_scramble_83.jpg,imgJS/WFN_scramble_18.jpg,imgJS/WFN_26.jpg,imgJS/WFN_scramble_31.jpg,imgJS/WFF_8.jpg,imgJS/WFN;999;999;rsvp_img_15;2;4;2;6;2;7;2;9;0;rsvp_flux;312;290656;0.0-312.0;9546715;05/05/2020 14:35
545.41000002064;"<div style=""font-size:20px;""><p> Avez-vous vu au moins un homme? </p><p> <strong> Oui [O] / Non [N] </strong></p> </div>";999;78;rsvpAnswHom;2;4;2;6;2;7;2;9;0;html-keyboard-response;313;291204;0.0-313.0;9546715;05/05/2020 14:35
999;999;999;999;fullscreenExp;999;999;999;999;999;999;999;999;999;fullscreen;314;291250;0.0-314.0;9546715;05/05/2020 14:35
999;fixation_cross;999;999;fixation;2;5;2;6;2;8;2;10;0;html-keyboard-response;315;292254;0.0-315.0;9546715;05/05/2020 14:35
999;imgJS/WFN_scramble_80.jpg,imgJS/WFN_scramble_76.jpg,imgJS/WFN_scramble_2.jpg,imgJS/WFN_scramble_79.jpg,imgJS/WFN_scramble_38.jpg,imgJS/WFN_scramble_71.jpg,imgJS/WFN_scramble_70.jpg,imgJS/WFN_scramble_25.jpg,imgJS/WFN_43.jpg,imgJS/WFN_scramble_26.jpg,;999;999;rsvp_img_15;2;5;2;6;2;8;2;10;0;rsvp_flux;316;293309;0.0-316.0;9546715;05/05/2020 14:35
960.51000000443;"<div style=""font-size:20px;""><p> Avez-vous vu au moins un homme? </p><p> <strong> Oui [O] / Non [N] </strong></p> </div>";999;78;rsvpAnswHom;2;5;2;6;2;8;2;10;0;html-keyboard-response;317;294272;0.0-317.0;9546715;05/05/2020 14:35
999;999;999;999;fullscreenExp;999;999;999;999;999;999;999;999;999;fullscreen;318;294312;0.0-318.0;9546715;05/05/2020 14:35
999;fixation_cross;999;999;fixation;2;6;2;5;2;4;3;6;0;html-keyboard-response;319;295317;0.0-319.0;9546715;05/05/2020 14:35
999;imgJS/WMN_scramble_24.jpg,imgJS/WMN_scramble_25.jpg,imgJS/WMN_scramble_42.jpg,imgJS/WMN_scramble_51.jpg,imgJS/WMN_61.jpg,imgJS/WMN_scramble_52.jpg,imgJS/WFF_30.jpg,imgJS/WMN_scramble_62.jpg,imgJS/WMN_scramble_73.jpg,imgJS/WMN_scramble_65.jpg,imgJS/WM;999;999;rsvp_img_15;2;6;2;5;2;4;3;6;0;rsvp_flux;320;296370;0.0-320.0;9546715;05/05/2020 14:35
978.51499996614;"<div style=""font-size:20px;""><p> Avez-vous vu au moins une femme? </p><p> <strong> Oui [O] / Non [N] </strong></p> </div>";999;78;rsvpAnswFem;2;6;2;5;2;4;3;6;0;html-keyboard-response;321;297351;0.0-321.0;9546715;05/05/2020 14:35
999;999;999;999;fullscreenExp;999;999;999;999;999;999;999;999;999;fullscreen;322;297389;0.0-322.0;9546715;05/05/2020 14:35
999;fixation_cross;999;999;fixation;2;7;2;6;2;7;2;9;1;html-keyboard-response;323;298395;0.0-323.0;9546715;05/05/2020 14:35
999;imgJS/WFN_scramble_53.jpg,imgJS/WFN_scramble_10.jpg,imgJS/WFN_scramble_52.jpg,imgJS/WFN_scramble_83.jpg,imgJS/WFN_scramble_10.jpg,imgJS/WFN_scramble_46.jpg,imgJS/WFN_scramble_64.jpg,imgJS/WFN_26.jpg,imgJS/WFN_scramble_52.jpg,imgJS/WMF_3.jpg,imgJS/WFN;999;999;rsvp_img_15;2;7;2;6;2;7;2;9;1;rsvp_flux;324;299448;0.0-324.0;9546715;05/05/2020 14:35
1188.3649999509;"<div style=""font-size:20px;""><p> Avez-vous vu au moins un homme? </p><p> <strong> Oui [O] / Non [N] </strong></p> </div>";999;79;rsvpAnswHom;2;7;2;6;2;7;2;9;1;html-keyboard-response;325;300639;0.0-325.0;9546715;05/05/2020 14:35
999;999;999;999;fullscreenExp;999;999;999;999;999;999;999;999;999;fullscreen;326;300677;0.0-326.0;9546715;05/05/2020 14:35
999;fixation_cross;999;999;fixation;2;8;2;3;2;4;1;8;1;html-keyboard-response;327;301683;0.0-327.0;9546715;05/05/2020 14:35
999;imgJS/WMF_scramble_14.jpg,imgJS/WMF_scramble_28.jpg,imgJS/WMF_scramble_9.jpg,imgJS/WMF_scramble_1.jpg,imgJS/WMF_5.jpg,imgJS/WMF_scramble_17.jpg,imgJS/WMF_scramble_7.jpg,imgJS/WMF_scramble_5.jpg,imgJS/WMF_9.jpg,imgJS/WMF_scramble_6.jpg,imgJS/WMF_scram;999;999;rsvp_img_15;2;8;2;3;2;4;1;8;1;rsvp_flux;328;302737;0.0-328.0;9546715;05/05/2020 14:35
774.67000007164;"<div style=""font-size:20px;""><p> Avez-vous vu au moins une femme? </p><p> <strong> Oui [O] / Non [N] </strong></p> </div>";999;78;rsvpAnswFem;2;8;2;3;2;4;1;8;1;html-keyboard-response;329;303514;0.0-329.0;9546715;05/05/2020 14:35
999;999;999;999;fullscreenExp;999;999;999;999;999;999;999;999;999;fullscreen;330;303552;0.0-330.0;9546715;05/05/2020 14:35
999;fixation_cross;999;999;fixation;2;9;2;3;2;6;1;10;0;html-keyboard-response;331;304557;0.0-331.0;9546715;05/05/2020 14:35
999;imgJS/WMF_scramble_17.jpg,imgJS/WMF_scramble_21.jpg,imgJS/WMF_scramble_11.jpg,imgJS/WMF_scramble_14.jpg,imgJS/WMF_scramble_9.jpg,imgJS/WMF_scramble_17.jpg,imgJS/WMF_5.jpg,imgJS/WMF_scramble_15.jpg,imgJS/WMF_scramble_5.jpg,imgJS/WMF_scramble_25.jpg,im;999;999;rsvp_img_15;2;9;2;3;2;6;1;10;0;rsvp_flux;332;305612;0.0-332.0;9546715;05/05/2020 14:35
477.47000004165;"<div style=""font-size:20px;""><p> Avez-vous vu au moins une femme? </p><p> <strong> Oui [O] / Non [N] </strong></p> </div>";999;79;rsvpAnswFem;2;9;2;3;2;6;1;10;0;html-keyboard-response;333;306093;0.0-333.0;9546715;05/05/2020 14:35
999;999;999;999;fullscreenExp;999;999;999;999;999;999;999;999;999;fullscreen;334;306096;0.0-334.0;9546715;05/05/2020 14:35
999;fixation_cross;999;999;fixation;2;10;2;6;2;4;2;6;1;html-keyboard-response;335;307139;0.0-335.0;9546715;05/05/2020 14:35
999;imgJS/WFN_scramble_31.jpg,imgJS/WFN_scramble_54.jpg,imgJS/WFN_scramble_40.jpg,imgJS/WFN_scramble_11.jpg,imgJS/WFN_74.jpg,imgJS/WFN_scramble_57.jpg,imgJS/WMF_29.jpg,imgJS/WFN_scramble_1.jpg,imgJS/WFN_scramble_35.jpg,imgJS/WFN_scramble_22.jpg,imgJS/WFN;999;999;rsvp_img_15;2;10;2;6;2;4;2;6;1;rsvp_flux;336;308193;0.0-336.0;9546715;05/05/2020 14:35
876.71500002034;"<div style=""font-size:20px;""><p> Avez-vous vu au moins un homme? </p><p> <strong> Oui [O] / Non [N] </strong></p> </div>";999;79;rsvpAnswHom;2;10;2;6;2;4;2;6;1;html-keyboard-response;337;309072;0.0-337.0;9546715;05/05/2020 14:35
999;999;999;999;fullscreenExp;999;999;999;999;999;999;999;999;999;fullscreen;338;309124;0.0-338.0;9546715;05/05/2020 14:35
999;fixation_cross;999;999;fixation;2;11;2;6;2;6;2;8;1;html-keyboard-response;339;310127;0.0-339.0;9546715;05/05/2020 14:35
999;imgJS/WFN_scramble_38.jpg,imgJS/WFN_scramble_11.jpg,imgJS/WFN_scramble_59.jpg,imgJS/WFN_scramble_84.jpg,imgJS/WFN_scramble_81.jpg,imgJS/WFN_scramble_45.jpg,imgJS/WFN_45.jpg,imgJS/WFN_scramble_80.jpg,imgJS/WMF_15.jpg,imgJS/WFN_scramble_61.jpg,imgJS/WF;999;999;rsvp_img_15;2;11;2;6;2;6;2;8;1;rsvp_flux;340;311182;0.0-340.0;9546715;05/05/2020 14:35
824.39500000328;"<div style=""font-size:20px;""><p> Avez-vous vu au moins un homme? </p><p> <strong> Oui [O] / Non [N] </strong></p> </div>";999;79;rsvpAnswHom;2;11;2;6;2;6;2;8;1;html-keyboard-response;341;312010;0.0-341.0;9546715;05/05/2020 14:35
999;999;999;999;fullscreenExp;999;999;999;999;999;999;999;999;999;fullscreen;342;312052;0.0-342.0;9546715;05/05/2020 14:35
999;fixation_cross;999;999;fixation;2;12;2;4;2;6;0;8;0;html-keyboard-response;343;313057;0.0-343.0;9546715;05/05/2020 14:35
999;imgJS/WFF_scramble_4.jpg,imgJS/WFF_scramble_16.jpg,imgJS/WFF_scramble_24.jpg,imgJS/WFF_scramble_12.jpg,imgJS/WFF_scramble_36.jpg,imgJS/WFF_scramble_5.jpg,imgJS/WFF_21.jpg,imgJS/WFF_scramble_7.jpg,imgJS/WFF_16.jpg,imgJS/WFF_scramble_17.jpg,imgJS/WFF_s;999;999;rsvp_img_15;2;12;2;4;2;6;0;8;0;rsvp_flux;344;314110;0.0-344.0;9546715;05/05/2020 14:35
2122.8199999314;"<div style=""font-size:20px;""><p> Avez-vous vu au moins un homme? </p><p> <strong> Oui [O] / Non [N] </strong></p> </div>";999;78;rsvpAnswHom;2;12;2;4;2;6;0;8;0;html-keyboard-response;345;316237;0.0-345.0;9546715;05/05/2020 14:35
999;999;999;999;fullscreenExp;999;999;999;999;999;999;999;999;999;fullscreen;346;316275;0.0-346.0;9546715;05/05/2020 14:35
999;fixation_cross;999;999;fixation;2;13;2;5;2;6;3;8;1;html-keyboard-response;347;317281;0.0-347.0;9546715;05/05/2020 14:35
999;imgJS/WMN_scramble_29.jpg,imgJS/WMN_scramble_35.jpg,imgJS/WMN_scramble_59.jpg,imgJS/WMN_scramble_27.jpg,imgJS/WMN_scramble_12.jpg,imgJS/WMN_scramble_59.jpg,imgJS/WMN_75.jpg,imgJS/WMN_scramble_54.jpg,imgJS/WMF_23.jpg,imgJS/WMN_scramble_53.jpg,imgJS/WM;999;999;rsvp_img_15;2;13;2;5;2;6;3;8;1;rsvp_flux;348;318334;0.0-348.0;9546715;05/05/2020 14:35
1728.6550001008;"<div style=""font-size:20px;""><p> Avez-vous vu au moins une femme? </p><p> <strong> Oui [O] / Non [N] </strong></p> </div>";999;79;rsvpAnswFem;2;13;2;5;2;6;3;8;1;html-keyboard-response;349;320066;0.0-349.0;9546715;05/05/2020 14:35
999;999;999;999;fullscreenExp;999;999;999;999;999;999;999;999;999;fullscreen;350;320105;0.0-350.0;9546715;05/05/2020 14:35
999;fixation_cross;999;999;fixation;2;14;2;3;2;6;3;10;3;html-keyboard-response;351;321109;0.0-351.0;9546715;05/05/2020 14:35
999;imgJS/WMN_scramble_62.jpg,imgJS/WMN_scramble_30.jpg,imgJS/WMN_scramble_80.jpg,imgJS/WMN_scramble_85.jpg,imgJS/WMN_scramble_89.jpg,imgJS/WMN_scramble_44.jpg,imgJS/WMN_59.jpg,imgJS/WMN_scramble_32.jpg,imgJS/WMN_scramble_38.jpg,imgJS/WMN_scramble_90.jpg;999;999;rsvp_img_15;2;14;2;3;2;6;3;10;3;rsvp_flux;352;322163;0.0-352.0;9546715;05/05/2020 14:35
1143.3299999917;"<div style=""font-size:20px;""><p> Avez-vous vu au moins une femme? </p><p> <strong> Oui [O] / Non [N] </strong></p> </div>";999;78;rsvpAnswFem;2;14;2;3;2;6;3;10;3;html-keyboard-response;353;323309;0.0-353.0;9546715;05/05/2020 14:35
999;999;999;999;fullscreenExp;999;999;999;999;999;999;999;999;999;fullscreen;354;323347;0.0-354.0;9546715;05/05/2020 14:35
999;fixation_cross;999;999;fixation;2;15;2;5;2;4;3;8;0;html-keyboard-response;355;324351;0.0-355.0;9546715;05/05/2020 14:35
999;imgJS/WMN_scramble_19.jpg,imgJS/WMN_scramble_8.jpg,imgJS/WMN_scramble_38.jpg,imgJS/WMN_scramble_33.jpg,imgJS/WMN_53.jpg,imgJS/WMN_scramble_51.jpg,imgJS/WMN_scramble_20.jpg,imgJS/WMN_scramble_74.jpg,imgJS/WFF_4.jpg,imgJS/WMN_scramble_32.jpg,imgJS/WMN_;999;999;rsvp_img_15;2;15;2;5;2;4;3;8;0;rsvp_flux;356;325403;0.0-356.0;9546715;05/05/2020 14:35
672.90499992669;"<div style=""font-size:20px;""><p> Avez-vous vu au moins une femme? </p><p> <strong> Oui [O] / Non [N] </strong></p> </div>";999;79;rsvpAnswFem;2;15;2;5;2;4;3;8;0;html-keyboard-response;357;326079;0.0-357.0;9546715;05/05/2020 14:35
999;999;999;999;fullscreenExp;999;999;999;999;999;999;999;999;999;fullscreen;358;326122;0.0-358.0;9546715;05/05/2020 14:35
999;fixation_cross;999;999;fixation;2;16;2;5;2;8;3;12;0;html-keyboard-response;359;327132;0.0-359.0;9546715;05/05/2020 14:35
999;imgJS/WMN_scramble_57.jpg,imgJS/WMN_scramble_73.jpg,imgJS/WMN_scramble_78.jpg,imgJS/WMN_scramble_79.jpg,imgJS/WMN_scramble_38.jpg,imgJS/WMN_scramble_73.jpg,imgJS/WMN_scramble_19.jpg,imgJS/WMN_scramble_26.jpg,imgJS/WMN_53.jpg,imgJS/WMN_scramble_69.jpg;999;999;rsvp_img_15;2;16;2;5;2;8;3;12;0;rsvp_flux;360;328186;0.0-360.0;9546715;05/05/2020 14:35
692.8299999563;"<div style=""font-size:20px;""><p> Avez-vous vu au moins une femme? </p><p> <strong> Oui [O] / Non [N] </strong></p> </div>";999;79;rsvpAnswFem;2;16;2;5;2;8;3;12;0;html-keyboard-response;361;328882;0.0-361.0;9546715;05/05/2020 14:35
999;999;999;999;fullscreenExp;999;999;999;999;999;999;999;999;999;fullscreen;362;328925;0.0-362.0;9546715;05/05/2020 14:35
999;fixation_cross;999;999;fixation;2;17;2;5;2;4;3;6;0;html-keyboard-response;363;329929;0.0-363.0;9546715;05/05/2020 14:35
999;imgJS/WMN_scramble_40.jpg,imgJS/WMN_scramble_12.jpg,imgJS/WMN_scramble_23.jpg,imgJS/WMN_scramble_88.jpg,imgJS/WMN_85.jpg,imgJS/WMN_scramble_13.jpg,imgJS/WFF_29.jpg,imgJS/WMN_scramble_89.jpg,imgJS/WMN_scramble_60.jpg,imgJS/WMN_scramble_77.jpg,imgJS/WM;999;999;rsvp_img_15;2;17;2;5;2;4;3;6;0;rsvp_flux;364;330981;0.0-364.0;9546715;05/05/2020 14:35
381.95499998983;"<div style=""font-size:20px;""><p> Avez-vous vu au moins une femme? </p><p> <strong> Oui [O] / Non [N] </strong></p> </div>";999;79;rsvpAnswFem;2;17;2;5;2;4;3;6;0;html-keyboard-response;365;331366;0.0-365.0;9546715;05/05/2020 14:35
999;999;999;999;fullscreenExp;999;999;999;999;999;999;999;999;999;fullscreen;366;331405;0.0-366.0;9546715;05/05/2020 14:35
999;fixation_cross;999;999;fixation;2;18;2;4;2;5;0;9;0;html-keyboard-response;367;332410;0.0-367.0;9546715;05/05/2020 14:35
999;imgJS/WFF_scramble_10.jpg,imgJS/WFF_scramble_10.jpg,imgJS/WFF_scramble_1.jpg,imgJS/WFF_scramble_33.jpg,imgJS/WFF_scramble_15.jpg,imgJS/WFF_27.jpg,imgJS/WFF_scramble_34.jpg,imgJS/WFF_scramble_27.jpg,imgJS/WFF_scramble_36.jpg,imgJS/WFF_30.jpg,imgJS/WFF;999;999;rsvp_img_15;2;18;2;4;2;5;0;9;0;rsvp_flux;368;333463;0.0-368.0;9546715;05/05/2020 14:35
1016.8600000907;"<div style=""font-size:20px;""><p> Avez-vous vu au moins un homme? </p><p> <strong> Oui [O] / Non [N] </strong></p> </div>";999;78;rsvpAnswHom;2;18;2;4;2;5;0;9;0;html-keyboard-response;369;334482;0.0-369.0;9546715;05/05/2020 14:35
999;999;999;999;fullscreenExp;999;999;999;999;999;999;999;999;999;fullscreen;370;334526;0.0-370.0;9546715;05/05/2020 14:35
999;fixation_cross;999;999;fixation;2;19;2;3;2;8;3;12;2;html-keyboard-response;371;335530;0.0-371.0;9546715;05/05/2020 14:35
999;imgJS/WMN_scramble_47.jpg,imgJS/WMN_scramble_81.jpg,imgJS/WMN_scramble_19.jpg,imgJS/WMN_scramble_11.jpg,imgJS/WMN_scramble_50.jpg,imgJS/WMN_scramble_85.jpg,imgJS/WMN_scramble_24.jpg,imgJS/WMN_scramble_15.jpg,imgJS/WMN_29.jpg,imgJS/WMN_scramble_25.jpg;999;999;rsvp_img_15;2;19;2;3;2;8;3;12;2;rsvp_flux;372;336584;0.0-372.0;9546715;05/05/2020 14:35
1754.8599999864;"<div style=""font-size:20px;""><p> Avez-vous vu au moins une femme? </p><p> <strong> Oui [O] / Non [N] </strong></p> </div>";999;78;rsvpAnswFem;2;19;2;3;2;8;3;12;2;html-keyboard-response;373;338342;0.0-373.0;9546715;05/05/2020 14:35
999;999;999;999;fullscreenExp;999;999;999;999;999;999;999;999;999;fullscreen;374;338381;0.0-374.0;9546715;05/05/2020 14:35
999;fixation_cross;999;999;fixation;2;20;2;6;2;5;2;7;0;html-keyboard-response;375;339386;0.0-375.0;9546715;05/05/2020 14:35
999;imgJS/WFN_scramble_45.jpg,imgJS/WFN_scramble_72.jpg,imgJS/WFN_scramble_8.jpg,imgJS/WFN_scramble_18.jpg,imgJS/WFN_scramble_60.jpg,imgJS/WFN_75.jpg,imgJS/WFN_scramble_71.jpg,imgJS/WFF_18.jpg,imgJS/WFN_scramble_52.jpg,imgJS/WFN_scramble_76.jpg,imgJS/WFN;999;999;rsvp_img_15;2;20;2;6;2;5;2;7;0;rsvp_flux;376;340440;0.0-376.0;9546715;05/05/2020 14:35
955.65000001807;"<div style=""font-size:20px;""><p> Avez-vous vu au moins un homme? </p><p> <strong> Oui [O] / Non [N] </strong></p> </div>";999;78;rsvpAnswHom;2;20;2;6;2;5;2;7;0;html-keyboard-response;377;341399;0.0-377.0;9546715;05/05/2020 14:35
999;999;999;999;fullscreenExp;999;999;999;999;999;999;999;999;999;fullscreen;378;341436;0.0-378.0;9546715;05/05/2020 14:35
999;fixation_cross;999;999;fixation;2;21;2;4;2;5;2;9;2;html-keyboard-response;379;342441;0.0-379.0;9546715;05/05/2020 14:35
999;imgJS/WFN_scramble_2.jpg,imgJS/WFN_scramble_86.jpg,imgJS/WFN_scramble_73.jpg,imgJS/WFN_scramble_3.jpg,imgJS/WFN_scramble_77.jpg,imgJS/WFN_79.jpg,imgJS/WFN_scramble_18.jpg,imgJS/WFN_scramble_69.jpg,imgJS/WFN_scramble_43.jpg,imgJS/WFN_33.jpg,imgJS/WFN_;999;999;rsvp_img_15;2;21;2;4;2;5;2;9;2;rsvp_flux;380;343495;0.0-380.0;9546715;05/05/2020 14:35
726.09499993268;"<div style=""font-size:20px;""><p> Avez-vous vu au moins un homme? </p><p> <strong> Oui [O] / Non [N] </strong></p> </div>";999;78;rsvpAnswHom;2;21;2;4;2;5;2;9;2;html-keyboard-response;381;344224;0.0-381.0;9546715;05/05/2020 14:35
999;999;999;999;fullscreenExp;999;999;999;999;999;999;999;999;999;fullscreen;382;344263;0.0-382.0;9546715;05/05/2020 14:35
999;fixation_cross;999;999;fixation;2;22;2;6;2;7;2;11;0;html-keyboard-response;383;345267;0.0-383.0;9546715;05/05/2020 14:35
999;imgJS/WFN_scramble_43.jpg,imgJS/WFN_scramble_67.jpg,imgJS/WFN_scramble_37.jpg,imgJS/WFN_scramble_73.jpg,imgJS/WFN_scramble_73.jpg,imgJS/WFN_scramble_22.jpg,imgJS/WFN_scramble_51.jpg,imgJS/WFN_58.jpg,imgJS/WFN_scramble_27.jpg,imgJS/WFN_scramble_2.jpg,;999;999;rsvp_img_15;2;22;2;6;2;7;2;11;0;rsvp_flux;384;346320;0.0-384.0;9546715;05/05/2020 14:35
787.84000000451;"<div style=""font-size:20px;""><p> Avez-vous vu au moins un homme? </p><p> <strong> Oui [O] / Non [N] </strong></p> </div>";999;78;rsvpAnswHom;2;22;2;6;2;7;2;11;0;html-keyboard-response;385;347111;0.0-385.0;9546715;05/05/2020 14:35
999;999;999;999;fullscreenExp;999;999;999;999;999;999;999;999;999;fullscreen;386;347151;0.0-386.0;9546715;05/05/2020 14:35
999;fixation_cross;999;999;fixation;2;23;2;5;2;7;3;11;1;html-keyboard-response;387;348154;0.0-387.0;9546715;05/05/2020 14:35
999;imgJS/WMN_scramble_42.jpg,imgJS/WMN_scramble_18.jpg,imgJS/WMN_scramble_89.jpg,imgJS/WMN_scramble_84.jpg,imgJS/WMN_scramble_38.jpg,imgJS/WMN_scramble_42.jpg,imgJS/WMN_scramble_76.jpg,imgJS/WMN_29.jpg,imgJS/WMN_scramble_80.jpg,imgJS/WMN_scramble_36.jpg;999;999;rsvp_img_15;2;23;2;5;2;7;3;11;1;rsvp_flux;388;349209;0.0-388.0;9546715;05/05/2020 14:35
1016.0049999831;"<div style=""font-size:20px;""><p> Avez-vous vu au moins une femme? </p><p> <strong> Oui [O] / Non [N] </strong></p> </div>";999;78;rsvpAnswFem;2;23;2;5;2;7;3;11;1;html-keyboard-response;389;350229;0.0-389.0;9546715;05/05/2020 14:35
999;999;999;999;fullscreenExp;999;999;999;999;999;999;999;999;999;fullscreen;390;350268;0.0-390.0;9546715;05/05/2020 14:35
999;fixation_cross;999;999;fixation;2;24;2;4;2;8;0;12;1;html-keyboard-response;391;351273;0.0-391.0;9546715;05/05/2020 14:35
999;imgJS/WFF_scramble_35.jpg,imgJS/WFF_scramble_27.jpg,imgJS/WFF_scramble_8.jpg,imgJS/WFF_scramble_23.jpg,imgJS/WFF_scramble_4.jpg,imgJS/WFF_scramble_8.jpg,imgJS/WFF_scramble_15.jpg,imgJS/WFF_scramble_14.jpg,imgJS/WFF_29.jpg,imgJS/WFF_scramble_8.jpg,img;999;999;rsvp_img_15;2;24;2;4;2;8;0;12;1;rsvp_flux;392;352327;0.0-392.0;9546715;05/05/2020 14:35
1361.4700000035;"<div style=""font-size:20px;""><p> Avez-vous vu au moins un homme? </p><p> <strong> Oui [O] / Non [N] </strong></p> </div>";999;79;rsvpAnswHom;2;24;2;4;2;8;0;12;1;html-keyboard-response;393;353692;0.0-393.0;9546715;05/05/2020 14:35
999;999;999;999;fullscreenExp;999;999;999;999;999;999;999;999;999;fullscreen;394;353736;0.0-394.0;9546715;05/05/2020 14:35
999;fixation_cross;999;999;fixation;2;25;2;3;2;6;1;10;0;html-keyboard-response;395;354740;0.0-395.0;9546715;05/05/2020 14:35
999;imgJS/WMF_scramble_26.jpg,imgJS/WMF_scramble_27.jpg,imgJS/WMF_scramble_15.jpg,imgJS/WMF_scramble_9.jpg,imgJS/WMF_scramble_29.jpg,imgJS/WMF_scramble_24.jpg,imgJS/WMF_16.jpg,imgJS/WMF_scramble_3.jpg,imgJS/WMF_scramble_27.jpg,imgJS/WMF_scramble_9.jpg,im;999;999;rsvp_img_15;2;25;2;3;2;6;1;10;0;rsvp_flux;396;355794;0.0-396.0;9546715;05/05/2020 14:35
822.22000008915;"<div style=""font-size:20px;""><p> Avez-vous vu au moins une femme? </p><p> <strong> Oui [O] / Non [N] </strong></p> </div>";999;79;rsvpAnswFem;2;25;2;3;2;6;1;10;0;html-keyboard-response;397;356619;0.0-397.0;9546715;05/05/2020 14:35
999;999;999;999;fullscreenExp;999;999;999;999;999;999;999;999;999;fullscreen;398;356662;0.0-398.0;9546715;05/05/2020 14:35
999;fixation_cross;999;999;fixation;2;26;2;5;2;5;3;7;0;html-keyboard-response;399;357667;0.0-399.0;9546715;05/05/2020 14:35
999;imgJS/WMN_scramble_27.jpg,imgJS/WMN_scramble_57.jpg,imgJS/WMN_scramble_57.jpg,imgJS/WMN_scramble_88.jpg,imgJS/WMN_scramble_86.jpg,imgJS/WMN_70.jpg,imgJS/WMN_scramble_87.jpg,imgJS/WFF_17.jpg,imgJS/WMN_scramble_91.jpg,imgJS/WMN_scramble_75.jpg,imgJS/WM;999;999;rsvp_img_15;2;26;2;5;2;5;3;7;0;rsvp_flux;400;358721;0.0-400.0;9546715;05/05/2020 14:35
1170.1700000558;"<div style=""font-size:20px;""><p> Avez-vous vu au moins une femme? </p><p> <strong> Oui [O] / Non [N] </strong></p> </div>";999;79;rsvpAnswFem;2;26;2;5;2;5;3;7;0;html-keyboard-response;401;359897;0.0-401.0;9546715;05/05/2020 14:35
999;999;999;999;fullscreenExp;999;999;999;999;999;999;999;999;999;fullscreen;402;359943;0.0-402.0;9546715;05/05/2020 14:35
999;fixation_cross;999;999;fixation;2;27;2;5;2;7;3;9;0;html-keyboard-response;403;360947;0.0-403.0;9546715;05/05/2020 14:35
999;imgJS/WMN_scramble_20.jpg,imgJS/WMN_scramble_89.jpg,imgJS/WMN_scramble_74.jpg,imgJS/WMN_scramble_87.jpg,imgJS/WMN_scramble_89.jpg,imgJS/WMN_scramble_87.jpg,imgJS/WMN_scramble_87.jpg,imgJS/WMN_31.jpg,imgJS/WMN_scramble_65.jpg,imgJS/WFF_30.jpg,imgJS/WM;999;999;rsvp_img_15;2;27;2;5;2;7;3;9;0;rsvp_flux;404;362002;0.0-404.0;9546715;05/05/2020 14:35
832.21000002231;"<div style=""font-size:20px;""><p> Avez-vous vu au moins une femme? </p><p> <strong> Oui [O] / Non [N] </strong></p> </div>";999;79;rsvpAnswFem;2;27;2;5;2;7;3;9;0;html-keyboard-response;405;362837;0.0-405.0;9546715;05/05/2020 14:35
999;999;999;999;fullscreenExp;999;999;999;999;999;999;999;999;999;fullscreen;406;362882;0.0-406.0;9546715;05/05/2020 14:35
999;fixation_cross;999;999;fixation;2;28;2;6;2;6;2;10;0;html-keyboard-response;407;363887;0.0-407.0;9546715;05/05/2020 14:35
999;imgJS/WFN_scramble_44.jpg,imgJS/WFN_scramble_29.jpg,imgJS/WFN_scramble_54.jpg,imgJS/WFN_scramble_41.jpg,imgJS/WFN_scramble_72.jpg,imgJS/WFN_scramble_2.jpg,imgJS/WFN_79.jpg,imgJS/WFN_scramble_85.jpg,imgJS/WFN_scramble_31.jpg,imgJS/WFN_scramble_61.jpg,;999;999;rsvp_img_15;2;28;2;6;2;6;2;10;0;rsvp_flux;408;364941;0.0-408.0;9546715;05/05/2020 14:35
1110.394999967;"<div style=""font-size:20px;""><p> Avez-vous vu au moins un homme? </p><p> <strong> Oui [O] / Non [N] </strong></p> </div>";999;78;rsvpAnswHom;2;28;2;6;2;6;2;10;0;html-keyboard-response;409;366054;0.0-409.0;9546715;05/05/2020 14:35
999;999;999;999;fullscreenExp;999;999;999;999;999;999;999;999;999;fullscreen;410;366094;0.0-410.0;9546715;05/05/2020 14:35
999;fixation_cross;999;999;fixation;2;29;2;6;2;8;2;10;1;html-keyboard-response;411;367098;0.0-411.0;9546715;05/05/2020 14:35
999;imgJS/WFN_scramble_57.jpg,imgJS/WFN_scramble_48.jpg,imgJS/WFN_scramble_18.jpg,imgJS/WFN_scramble_22.jpg,imgJS/WFN_scramble_76.jpg,imgJS/WFN_scramble_78.jpg,imgJS/WFN_scramble_81.jpg,imgJS/WFN_scramble_75.jpg,imgJS/WFN_53.jpg,imgJS/WFN_scramble_48.jpg;999;999;rsvp_img_15;2;29;2;6;2;8;2;10;1;rsvp_flux;412;368152;0.0-412.0;9546715;05/05/2020 14:35
756.1449999921;"<div style=""font-size:20px;""><p> Avez-vous vu au moins un homme? </p><p> <strong> Oui [O] / Non [N] </strong></p> </div>";999;79;rsvpAnswHom;2;29;2;6;2;8;2;10;1;html-keyboard-response;413;368911;0.0-413.0;9546715;05/05/2020 14:35
999;999;999;999;fullscreenExp;999;999;999;999;999;999;999;999;999;fullscreen;414;368948;0.0-414.0;9546715;05/05/2020 14:35
999;instructions/instructionsDiapo/Slide4.jpg;999;999;instrCondi;3;999;NULL;NULL;1;999;999;999;999;image-keyboard-response;415;408397;0.0-415.0;9546715;05/05/2020 14:35
999;fixation_cross;999;999;fixation;3;0;1;3;1;5;3;7;2;html-keyboard-response;416;409402;0.0-416.0;9546715;05/05/2020 14:35
999;imgJS/WMN_scramble_32.jpg,imgJS/WMN_scramble_43.jpg,imgJS/WMN_scramble_44.jpg,imgJS/WMN_scramble_66.jpg,imgJS/WMN_scramble_47.jpg,imgJS/WMN_51.jpg,imgJS/WMN_scramble_55.jpg,imgJS/WFN_65.jpg,imgJS/WMN_scramble_7.jpg,imgJS/WMN_scramble_66.jpg,imgJS/WMN;999;999;rsvp_img_15;3;0;1;3;1;5;3;7;2;rsvp_flux;417;410455;0.0-417.0;9546715;05/05/2020 14:35
840.00500000548;"<div style=""font-size:20px;""><p> Avez-vous vu au moins une femme? </p><p> <strong> Oui [O] / Non [N] </strong></p> </div>";999;78;rsvpAnswFem;3;0;1;3;1;5;3;7;2;html-keyboard-response;418;411298;0.0-418.0;9546715;05/05/2020 14:35
999;999;999;999;fullscreenExp;999;999;999;999;999;999;999;999;999;fullscreen;419;411346;0.0-419.0;9546715;05/05/2020 14:35
999;fixation_cross;999;999;fixation;3;1;1;2;1;6;0;10;3;html-keyboard-response;420;412351;0.0-420.0;9546715;05/05/2020 14:35
999;imgJS/WFF_scramble_23.jpg,imgJS/WFF_scramble_6.jpg,imgJS/WFF_scramble_5.jpg,imgJS/WFF_scramble_23.jpg,imgJS/WFF_scramble_3.jpg,imgJS/WFF_scramble_4.jpg,imgJS/WFF_21.jpg,imgJS/WFF_scramble_36.jpg,imgJS/WFF_scramble_10.jpg,imgJS/WFF_scramble_11.jpg,img;999;999;rsvp_img_15;3;1;1;2;1;6;0;10;3;rsvp_flux;421;413404;0.0-421.0;9546715;05/05/2020 14:35
1210.9000000637;"<div style=""font-size:20px;""><p> Avez-vous vu au moins un homme? </p><p> <strong> Oui [O] / Non [N] </strong></p> </div>";999;79;rsvpAnswHom;3;1;1;2;1;6;0;10;3;html-keyboard-response;422;414618;0.0-422.0;9546715;05/05/2020 14:35
999;999;999;999;fullscreenExp;999;999;999;999;999;999;999;999;999;fullscreen;423;414664;0.0-423.0;9546715;05/05/2020 14:35
999;fixation_cross;999;999;fixation;3;2;1;4;1;4;2;6;2;html-keyboard-response;424;415669;0.0-424.0;9546715;05/05/2020 14:35
999;imgJS/WFN_scramble_27.jpg,imgJS/WFN_scramble_63.jpg,imgJS/WFN_scramble_68.jpg,imgJS/WFN_scramble_44.jpg,imgJS/WFN_35.jpg,imgJS/WFN_scramble_74.jpg,imgJS/WFN_27.jpg,imgJS/WFN_scramble_53.jpg,imgJS/WFN_scramble_28.jpg,imgJS/WFN_scramble_29.jpg,imgJS/WF;999;999;rsvp_img_15;3;2;1;4;1;4;2;6;2;rsvp_flux;425;416722;0.0-425.0;9546715;05/05/2020 14:35
630.70500001777;"<div style=""font-size:20px;""><p> Avez-vous vu au moins un homme? </p><p> <strong> Oui [O] / Non [N] </strong></p> </div>";999;78;rsvpAnswHom;3;2;1;4;1;4;2;6;2;html-keyboard-response;426;417356;0.0-426.0;9546715;05/05/2020 14:35
999;999;999;999;fullscreenExp;999;999;999;999;999;999;999;999;999;fullscreen;427;417395;0.0-427.0;9546715;05/05/2020 14:35
999;fixation_cross;999;999;fixation;3;3;1;3;1;4;3;6;3;html-keyboard-response;428;418400;0.0-428.0;9546715;05/05/2020 14:35
999;imgJS/WMN_scramble_34.jpg,imgJS/WMN_scramble_39.jpg,imgJS/WMN_scramble_11.jpg,imgJS/WMN_scramble_34.jpg,imgJS/WMN_4.jpg,imgJS/WMN_scramble_11.jpg,imgJS/WMN_63.jpg,imgJS/WMN_scramble_47.jpg,imgJS/WMN_scramble_44.jpg,imgJS/WMN_scramble_78.jpg,imgJS/WMN;999;999;rsvp_img_15;3;3;1;3;1;4;3;6;3;rsvp_flux;429;419454;0.0-429.0;9546715;05/05/2020 14:35
774.74000002258;"<div style=""font-size:20px;""><p> Avez-vous vu au moins une femme? </p><p> <strong> Oui [O] / Non [N] </strong></p> </div>";999;78;rsvpAnswFem;3;3;1;3;1;4;3;6;3;html-keyboard-response;430;420231;0.0-430.0;9546715;05/05/2020 14:35
999;999;999;999;fullscreenExp;999;999;999;999;999;999;999;999;999;fullscreen;431;420271;0.0-431.0;9546715;05/05/2020 14:35
999;fixation_cross;999;999;fixation;3;4;1;2;1;4;0;6;3;html-keyboard-response;432;421276;0.0-432.0;9546715;05/05/2020 14:35
999;imgJS/WFF_scramble_12.jpg,imgJS/WFF_scramble_13.jpg,imgJS/WFF_scramble_13.jpg,imgJS/WFF_scramble_34.jpg,imgJS/WFF_28.jpg,imgJS/WFF_scramble_31.jpg,imgJS/WMN_57.jpg,imgJS/WFF_scramble_34.jpg,imgJS/WFF_scramble_30.jpg,imgJS/WFF_scramble_19.jpg,imgJS/WF;999;999;rsvp_img_15;3;4;1;2;1;4;0;6;3;rsvp_flux;433;422330;0.0-433.0;9546715;05/05/2020 14:35
664.33000005782;"<div style=""font-size:20px;""><p> Avez-vous vu au moins un homme? </p><p> <strong> Oui [O] / Non [N] </strong></p> </div>";999;78;rsvpAnswHom;3;4;1;2;1;4;0;6;3;html-keyboard-response;434;422997;0.0-434.0;9546715;05/05/2020 14:35
999;999;999;999;fullscreenExp;999;999;999;999;999;999;999;999;999;fullscreen;435;423040;0.0-435.0;9546715;05/05/2020 14:35
999;fixation_cross;999;999;fixation;3;5;1;2;1;7;0;9;3;html-keyboard-response;436;424044;0.0-436.0;9546715;05/05/2020 14:35
999;imgJS/WFF_scramble_16.jpg,imgJS/WFF_scramble_18.jpg,imgJS/WFF_scramble_3.jpg,imgJS/WFF_scramble_19.jpg,imgJS/WFF_scramble_7.jpg,imgJS/WFF_scramble_5.jpg,imgJS/WFF_scramble_26.jpg,imgJS/WFF_2.jpg,imgJS/WFF_scramble_5.jpg,imgJS/WMN_72.jpg,imgJS/WFF_scr;999;999;rsvp_img_15;3;5;1;2;1;7;0;9;3;rsvp_flux;437;425098;0.0-437.0;9546715;05/05/2020 14:35
636.91000000108;"<div style=""font-size:20px;""><p> Avez-vous vu au moins un homme? </p><p> <strong> Oui [O] / Non [N] </strong></p> </div>";999;78;rsvpAnswHom;3;5;1;2;1;7;0;9;3;html-keyboard-response;438;425738;0.0-438.0;9546715;05/05/2020 14:35
999;999;999;999;fullscreenExp;999;999;999;999;999;999;999;999;999;fullscreen;439;425774;0.0-439.0;9546715;05/05/2020 14:35
999;fixation_cross;999;999;fixation;3;6;1;3;1;7;1;11;1;html-keyboard-response;440;426779;0.0-440.0;9546715;05/05/2020 14:35
999;imgJS/WMF_scramble_17.jpg,imgJS/WMF_scramble_20.jpg,imgJS/WMF_scramble_1.jpg,imgJS/WMF_scramble_17.jpg,imgJS/WMF_scramble_18.jpg,imgJS/WMF_scramble_28.jpg,imgJS/WMF_scramble_14.jpg,imgJS/WMF_9.jpg,imgJS/WMF_scramble_16.jpg,imgJS/WMF_scramble_10.jpg,i;999;999;rsvp_img_15;3;6;1;3;1;7;1;11;1;rsvp_flux;441;427832;0.0-441.0;9546715;05/05/2020 14:35
844.62500002701;"<div style=""font-size:20px;""><p> Avez-vous vu au moins une femme? </p><p> <strong> Oui [O] / Non [N] </strong></p> </div>";999;78;rsvpAnswFem;3;6;1;3;1;7;1;11;1;html-keyboard-response;442;428680;0.0-442.0;9546715;05/05/2020 14:35
999;999;999;999;fullscreenExp;999;999;999;999;999;999;999;999;999;fullscreen;443;428728;0.0-443.0;9546715;05/05/2020 14:35
999;fixation_cross;999;999;fixation;3;7;1;1;1;5;1;7;3;html-keyboard-response;444;429732;0.0-444.0;9546715;05/05/2020 14:35
999;imgJS/WMF_scramble_13.jpg,imgJS/WMF_scramble_7.jpg,imgJS/WMF_scramble_15.jpg,imgJS/WMF_scramble_5.jpg,imgJS/WMF_scramble_9.jpg,imgJS/WMF_12.jpg,imgJS/WMF_scramble_15.jpg,imgJS/WMN_81.jpg,imgJS/WMF_scramble_11.jpg,imgJS/WMF_scramble_22.jpg,imgJS/WMF_s;999;999;rsvp_img_15;3;7;1;1;1;5;1;7;3;rsvp_flux;445;430785;0.0-445.0;9546715;05/05/2020 14:35
560.07999996655;"<div style=""font-size:20px;""><p> Avez-vous vu au moins une femme? </p><p> <strong> Oui [O] / Non [N] </strong></p> </div>";999;78;rsvpAnswFem;3;7;1;1;1;5;1;7;3;html-keyboard-response;446;431349;0.0-446.0;9546715;05/05/2020 14:35
999;999;999;999;fullscreenExp;999;999;999;999;999;999;999;999;999;fullscreen;447;431388;0.0-447.0;9546715;05/05/2020 14:35
999;fixation_cross;999;999;fixation;3;8;1;3;1;6;3;8;2;html-keyboard-response;448;432392;0.0-448.0;9546715;05/05/2020 14:35
999;imgJS/WMN_scramble_51.jpg,imgJS/WMN_scramble_68.jpg,imgJS/WMN_scramble_38.jpg,imgJS/WMN_scramble_26.jpg,imgJS/WMN_scramble_75.jpg,imgJS/WMN_scramble_44.jpg,imgJS/WMN_79.jpg,imgJS/WMN_scramble_13.jpg,imgJS/WFN_30.jpg,imgJS/WMN_scramble_75.jpg,imgJS/WM;999;999;rsvp_img_15;3;8;1;3;1;6;3;8;2;rsvp_flux;449;433446;0.0-449.0;9546715;05/05/2020 14:35
524.81500001159;"<div style=""font-size:20px;""><p> Avez-vous vu au moins une femme? </p><p> <strong> Oui [O] / Non [N] </strong></p> </div>";999;79;rsvpAnswFem;3;8;1;3;1;6;3;8;2;html-keyboard-response;450;433974;0.0-450.0;9546715;05/05/2020 14:35
999;999;999;999;fullscreenExp;999;999;999;999;999;999;999;999;999;fullscreen;451;434012;0.0-451.0;9546715;05/05/2020 14:35
999;fixation_cross;999;999;fixation;3;9;1;4;1;4;0;8;1;html-keyboard-response;452;435017;0.0-452.0;9546715;05/05/2020 14:35
999;imgJS/WFF_scramble_14.jpg,imgJS/WFF_scramble_33.jpg,imgJS/WFF_scramble_7.jpg,imgJS/WFF_scramble_22.jpg,imgJS/WFF_33.jpg,imgJS/WFF_scramble_26.jpg,imgJS/WFF_scramble_18.jpg,imgJS/WFF_scramble_19.jpg,imgJS/WMF_22.jpg,imgJS/WFF_scramble_11.jpg,imgJS/WFF;999;999;rsvp_img_15;3;9;1;4;1;4;0;8;1;rsvp_flux;453;436070;0.0-453.0;9546715;05/05/2020 14:35
775.17000003718;"<div style=""font-size:20px;""><p> Avez-vous vu au moins un homme? </p><p> <strong> Oui [O] / Non [N] </strong></p> </div>";999;79;rsvpAnswHom;3;9;1;4;1;4;0;8;1;html-keyboard-response;454;436849;0.0-454.0;9546715;05/05/2020 14:35
999;999;999;999;fullscreenExp;999;999;999;999;999;999;999;999;999;fullscreen;455;436890;0.0-455.0;9546715;05/05/2020 14:35
999;fixation_cross;999;999;fixation;3;10;1;1;1;6;1;8;2;html-keyboard-response;456;437895;0.0-456.0;9546715;05/05/2020 14:35
999;imgJS/WMF_scramble_13.jpg,imgJS/WMF_scramble_17.jpg,imgJS/WMF_scramble_4.jpg,imgJS/WMF_scramble_19.jpg,imgJS/WMF_scramble_12.jpg,imgJS/WMF_scramble_18.jpg,imgJS/WMF_11.jpg,imgJS/WMF_scramble_22.jpg,imgJS/WFN_60.jpg,imgJS/WMF_scramble_17.jpg,imgJS/WMF;999;999;rsvp_img_15;3;10;1;1;1;6;1;8;2;rsvp_flux;457;438948;0.0-457.0;9546715;05/05/2020 14:35
757.28499994148;"<div style=""font-size:20px;""><p> Avez-vous vu au moins une femme? </p><p> <strong> Oui [O] / Non [N] </strong></p> </div>";999;78;rsvpAnswFem;3;10;1;1;1;6;1;8;2;html-keyboard-response;458;439708;0.0-458.0;9546715;05/05/2020 14:35
999;999;999;999;fullscreenExp;999;999;999;999;999;999;999;999;999;fullscreen;459;439756;0.0-459.0;9546715;05/05/2020 14:35
999;fixation_cross;999;999;fixation;3;11;1;1;1;4;1;6;3;html-keyboard-response;460;440761;0.0-460.0;9546715;05/05/2020 14:35
999;imgJS/WMF_scramble_1.jpg,imgJS/WMF_scramble_26.jpg,imgJS/WMF_scramble_28.jpg,imgJS/WMF_scramble_9.jpg,imgJS/WMF_18.jpg,imgJS/WMF_scramble_3.jpg,imgJS/WMN_82.jpg,imgJS/WMF_scramble_19.jpg,imgJS/WMF_scramble_18.jpg,imgJS/WMF_scramble_3.jpg,imgJS/WMF_sc;999;999;rsvp_img_15;3;11;1;1;1;4;1;6;3;rsvp_flux;461;441814;0.0-461.0;9546715;05/05/2020 14:35
917.71499998868;"<div style=""font-size:20px;""><p> Avez-vous vu au moins une femme? </p><p> <strong> Oui [O] / Non [N] </strong></p> </div>";999;78;rsvpAnswFem;3;11;1;1;1;4;1;6;3;html-keyboard-response;462;442735;0.0-462.0;9546715;05/05/2020 14:35
999;999;999;999;fullscreenExp;999;999;999;999;999;999;999;999;999;fullscreen;463;442775;0.0-463.0;9546715;05/05/2020 14:35
999;fixation_cross;999;999;fixation;3;12;1;4;1;8;2;12;3;html-keyboard-response;464;443779;0.0-464.0;9546715;05/05/2020 14:35
999;imgJS/WFN_scramble_46.jpg,imgJS/WFN_scramble_63.jpg,imgJS/WFN_scramble_27.jpg,imgJS/WFN_scramble_24.jpg,imgJS/WFN_scramble_86.jpg,imgJS/WFN_scramble_3.jpg,imgJS/WFN_scramble_49.jpg,imgJS/WFN_scramble_61.jpg,imgJS/WFN_22.jpg,imgJS/WFN_scramble_57.jpg,;999;999;rsvp_img_15;3;12;1;4;1;8;2;12;3;rsvp_flux;465;444834;0.0-465.0;9546715;05/05/2020 14:35
1874.9499999685;"<div style=""font-size:20px;""><p> Avez-vous vu au moins un homme? </p><p> <strong> Oui [O] / Non [N] </strong></p> </div>";999;79;rsvpAnswHom;3;12;1;4;1;8;2;12;3;html-keyboard-response;466;446712;0.0-466.0;9546715;05/05/2020 14:35
999;999;999;999;fullscreenExp;999;999;999;999;999;999;999;999;999;fullscreen;467;446757;0.0-467.0;9546715;05/05/2020 14:35
999;fixation_cross;999;999;fixation;3;13;1;1;1;5;1;7;2;html-keyboard-response;468;447762;0.0-468.0;9546715;05/05/2020 14:35
999;imgJS/WMF_scramble_13.jpg,imgJS/WMF_scramble_18.jpg,imgJS/WMF_scramble_26.jpg,imgJS/WMF_scramble_18.jpg,imgJS/WMF_scramble_1.jpg,imgJS/WMF_13.jpg,imgJS/WMF_scramble_11.jpg,imgJS/WFN_67.jpg,imgJS/WMF_scramble_2.jpg,imgJS/WMF_scramble_29.jpg,imgJS/WMF_;999;999;rsvp_img_15;3;13;1;1;1;5;1;7;2;rsvp_flux;469;448816;0.0-469.0;9546715;05/05/2020 14:35
832.99000002444;"<div style=""font-size:20px;""><p> Avez-vous vu au moins une femme? </p><p> <strong> Oui [O] / Non [N] </strong></p> </div>";999;78;rsvpAnswFem;3;13;1;1;1;5;1;7;2;html-keyboard-response;470;449652;0.0-470.0;9546715;05/05/2020 14:35
999;999;999;999;fullscreenExp;999;999;999;999;999;999;999;999;999;fullscreen;471;449695;0.0-471.0;9546715;05/05/2020 14:35
999;fixation_cross;999;999;fixation;3;14;1;2;1;4;0;6;2;html-keyboard-response;472;450699;0.0-472.0;9546715;05/05/2020 14:35
999;imgJS/WFF_scramble_23.jpg,imgJS/WFF_scramble_2.jpg,imgJS/WFF_scramble_6.jpg,imgJS/WFF_scramble_27.jpg,imgJS/WFF_23.jpg,imgJS/WFF_scramble_17.jpg,imgJS/WFN_45.jpg,imgJS/WFF_scramble_3.jpg,imgJS/WFF_scramble_28.jpg,imgJS/WFF_scramble_13.jpg,imgJS/WFF_s;999;999;rsvp_img_15;3;14;1;2;1;4;0;6;2;rsvp_flux;473;451775;0.0-473.0;9546715;05/05/2020 14:35
634.68999997713;"<div style=""font-size:20px;""><p> Avez-vous vu au moins un homme? </p><p> <strong> Oui [O] / Non [N] </strong></p> </div>";999;78;rsvpAnswHom;3;14;1;2;1;4;0;6;2;html-keyboard-response;474;452412;0.0-474.0;9546715;05/05/2020 14:35
