rt;stimulus;responses;key_press;test_part;blockNb;trialNb;condiEmoBlock;condiEmoTrial;condiRwd;posCritDist;distractor;posTarget;target;trial_type;trial_index;time_elapsed;internal_node_id;subject_id;date
999;999;999;999;firstFullscreen;999;999;999;999;999;999;999;999;999;fullscreen;0;4327;0.0-0.0;3038149;05/05/2020 16:59
58166.850000038;999;"[{""page"":0,""time"":11688.074999954551},{""page"":1,""time"":888.3100000675768},{""page"":2,""time"":725.91000";999;instr;999;999;999;999;999;999;999;999;999;instructions;1;62538;0.0-1.0;3038149;05/05/2020 16:59
999;fixation_cross;999;999;fixation;0;0;1;2;1;4;0;8;2;html-keyboard-response;2;63581;0.0-2.0;3038149;05/05/2020 16:59
999;imgJS/WFF_scramble_18.jpg,imgJS/WFF_scramble_22.jpg,imgJS/WFF_scramble_15.jpg,imgJS/WFF_scramble_19.jpg,imgJS/WFF_30.jpg,imgJS/WFF_scramble_2.jpg,imgJS/WFF_scramble_31.jpg,imgJS/WFF_scramble_1.jpg,imgJS/WFN_26.jpg,imgJS/WFF_scramble_13.jpg,imgJS/WFF_;999;999;rsvp_img_15;0;0;1;2;1;4;0;8;2;rsvp_flux;3;64637;0.0-3.0;3038149;05/05/2020 16:59
3312.8400000278;"<div style=""font-size:20px;""><p> Avez-vous vu au moins un homme? </p><p> <strong> Oui [O] / Non [N] </strong></p> </div>";999;78;rsvpAnswHom;0;0;1;2;1;4;0;8;2;html-keyboard-response;4;67954;0.0-4.0;3038149;05/05/2020 16:59
999;999;999;999;fullscreenExp;999;999;999;999;999;999;999;999;999;fullscreen;5;68002;0.0-5.0;3038149;05/05/2020 16:59
999;fixation_cross;999;999;fixation;0;1;1;2;1;7;0;11;2;html-keyboard-response;6;69008;0.0-6.0;3038149;05/05/2020 16:59
999;imgJS/WFF_scramble_23.jpg,imgJS/WFF_scramble_31.jpg,imgJS/WFF_scramble_10.jpg,imgJS/WFF_scramble_13.jpg,imgJS/WFF_scramble_11.jpg,imgJS/WFF_scramble_27.jpg,imgJS/WFF_scramble_14.jpg,imgJS/WFF_3.jpg,imgJS/WFF_scramble_29.jpg,imgJS/WFF_scramble_27.jpg,;999;999;rsvp_img_15;0;1;1;2;1;7;0;11;2;rsvp_flux;7;70062;0.0-7.0;3038149;05/05/2020 16:59
1865.8750000177;"<div style=""font-size:20px;""><p> Avez-vous vu au moins un homme? </p><p> <strong> Oui [O] / Non [N] </strong></p> </div>";999;78;rsvpAnswHom;0;1;1;2;1;7;0;11;2;html-keyboard-response;8;71931;0.0-8.0;3038149;05/05/2020 16:59
999;999;999;999;fullscreenExp;999;999;999;999;999;999;999;999;999;fullscreen;9;71973;0.0-9.0;3038149;05/05/2020 16:59
999;fixation_cross;999;999;fixation;0;2;1;1;1;7;1;9;2;html-keyboard-response;10;72978;0.0-10.0;3038149;05/05/2020 16:59
999;imgJS/WMF_scramble_7.jpg,imgJS/WMF_scramble_4.jpg,imgJS/WMF_scramble_18.jpg,imgJS/WMF_scramble_17.jpg,imgJS/WMF_scramble_14.jpg,imgJS/WMF_scramble_22.jpg,imgJS/WMF_scramble_15.jpg,imgJS/WMF_19.jpg,imgJS/WMF_scramble_18.jpg,imgJS/WFN_38.jpg,imgJS/WMF_;999;999;rsvp_img_15;0;2;1;1;1;7;1;9;2;rsvp_flux;11;74041;0.0-11.0;3038149;05/05/2020 16:59
3879.2249999242;"<div style=""font-size:20px;""><p> Avez-vous vu au moins une femme? </p><p> <strong> Oui [O] / Non [N] </strong></p> </div>";999;79;rsvpAnswFem;0;2;1;1;1;7;1;9;2;html-keyboard-response;12;77924;0.0-12.0;3038149;05/05/2020 16:59
999;999;999;999;fullscreenExp;999;999;999;999;999;999;999;999;999;fullscreen;13;77966;0.0-13.0;3038149;05/05/2020 16:59
999;fixation_cross;999;999;fixation;0;3;1;3;1;5;3;7;2;html-keyboard-response;14;78970;0.0-14.0;3038149;05/05/2020 16:59
999;imgJS/WMN_scramble_11.jpg,imgJS/WMN_scramble_48.jpg,imgJS/WMN_scramble_57.jpg,imgJS/WMN_scramble_27.jpg,imgJS/WMN_scramble_25.jpg,imgJS/WMN_19.jpg,imgJS/WMN_scramble_73.jpg,imgJS/WFN_19.jpg,imgJS/WMN_scramble_91.jpg,imgJS/WMN_scramble_12.jpg,imgJS/WM;999;999;rsvp_img_15;0;3;1;3;1;5;3;7;2;rsvp_flux;15;80025;0.0-15.0;3038149;05/05/2020 16:59
1625.0950000249;"<div style=""font-size:20px;""><p> Avez-vous vu au moins une femme? </p><p> <strong> Oui [O] / Non [N] </strong></p> </div>";999;79;rsvpAnswFem;0;3;1;3;1;5;3;7;2;html-keyboard-response;16;81653;0.0-16.0;3038149;05/05/2020 16:59
999;999;999;999;fullscreenExp;999;999;999;999;999;999;999;999;999;fullscreen;17;81694;0.0-17.0;3038149;05/05/2020 16:59
999;fixation_cross;999;999;fixation;0;4;1;1;1;7;1;11;2;html-keyboard-response;18;82698;0.0-18.0;3038149;05/05/2020 16:59
999;imgJS/WMF_scramble_13.jpg,imgJS/WMF_scramble_22.jpg,imgJS/WMF_scramble_8.jpg,imgJS/WMF_scramble_7.jpg,imgJS/WMF_scramble_14.jpg,imgJS/WMF_scramble_17.jpg,imgJS/WMF_scramble_5.jpg,imgJS/WMF_2.jpg,imgJS/WMF_scramble_15.jpg,imgJS/WMF_scramble_10.jpg,img;999;999;rsvp_img_15;0;4;1;1;1;7;1;11;2;rsvp_flux;19;83752;0.0-19.0;3038149;05/05/2020 16:59
5978.6549999844;"<div style=""font-size:20px;""><p> Avez-vous vu au moins une femme? </p><p> <strong> Oui [O] / Non [N] </strong></p> </div>";999;79;rsvpAnswFem;0;4;1;1;1;7;1;11;2;html-keyboard-response;20;89733;0.0-20.0;3038149;05/05/2020 16:59
999;999;999;999;fullscreenExp;999;999;999;999;999;999;999;999;999;fullscreen;21;89775;0.0-21.0;3038149;05/05/2020 16:59
999;fixation_cross;999;999;fixation;0;5;1;4;1;6;2;8;3;html-keyboard-response;22;90780;0.0-22.0;3038149;05/05/2020 16:59
999;imgJS/WFN_scramble_10.jpg,imgJS/WFN_scramble_81.jpg,imgJS/WFN_scramble_46.jpg,imgJS/WFN_scramble_37.jpg,imgJS/WFN_scramble_57.jpg,imgJS/WFN_scramble_35.jpg,imgJS/WFN_38.jpg,imgJS/WFN_scramble_78.jpg,imgJS/WMN_69.jpg,imgJS/WFN_scramble_35.jpg,imgJS/WF;999;999;rsvp_img_15;0;5;1;4;1;6;2;8;3;rsvp_flux;23;91833;0.0-23.0;3038149;05/05/2020 16:59
4021.7450000346;"<div style=""font-size:20px;""><p> Avez-vous vu au moins un homme? </p><p> <strong> Oui [O] / Non [N] </strong></p> </div>";999;79;rsvpAnswHom;0;5;1;4;1;6;2;8;3;html-keyboard-response;24;95857;0.0-24.0;3038149;05/05/2020 16:59
999;999;999;999;fullscreenExp;999;999;999;999;999;999;999;999;999;fullscreen;25;95904;0.0-25.0;3038149;05/05/2020 16:59
999;fixation_cross;999;999;fixation;1;0;2;5;2;4;3;8;0;html-keyboard-response;26;96908;0.0-26.0;3038149;05/05/2020 16:59
999;imgJS/WMN_scramble_64.jpg,imgJS/WMN_scramble_12.jpg,imgJS/WMN_scramble_56.jpg,imgJS/WMN_scramble_59.jpg,imgJS/WMN_28.jpg,imgJS/WMN_scramble_19.jpg,imgJS/WMN_scramble_85.jpg,imgJS/WMN_scramble_8.jpg,imgJS/WFF_2.jpg,imgJS/WMN_scramble_11.jpg,imgJS/WMN_;999;999;rsvp_img_15;1;0;2;5;2;4;3;8;0;rsvp_flux;27;97963;0.0-27.0;3038149;05/05/2020 16:59
1440.1100000832;"<div style=""font-size:20px;""><p> Avez-vous vu au moins une femme? </p><p> <strong> Oui [O] / Non [N] </strong></p> </div>";999;78;rsvpAnswFem;1;0;2;5;2;4;3;8;0;html-keyboard-response;28;99405;0.0-28.0;3038149;05/05/2020 16:59
999;999;999;999;fullscreenExp;999;999;999;999;999;999;999;999;999;fullscreen;29;99454;0.0-29.0;3038149;05/05/2020 16:59
999;fixation_cross;999;999;fixation;1;1;2;3;2;8;1;12;0;html-keyboard-response;30;100459;0.0-30.0;3038149;05/05/2020 16:59
999;imgJS/WMF_scramble_14.jpg,imgJS/WMF_scramble_7.jpg,imgJS/WMF_scramble_18.jpg,imgJS/WMF_scramble_17.jpg,imgJS/WMF_scramble_18.jpg,imgJS/WMF_scramble_28.jpg,imgJS/WMF_scramble_28.jpg,imgJS/WMF_scramble_1.jpg,imgJS/WMF_21.jpg,imgJS/WMF_scramble_9.jpg,im;999;999;rsvp_img_15;1;1;2;3;2;8;1;12;0;rsvp_flux;31;101512;0.0-31.0;3038149;05/05/2020 16:59
1781.5249999985;"<div style=""font-size:20px;""><p> Avez-vous vu au moins une femme? </p><p> <strong> Oui [O] / Non [N] </strong></p> </div>";999;79;rsvpAnswFem;1;1;2;3;2;8;1;12;0;html-keyboard-response;32;103296;0.0-32.0;3038149;05/05/2020 16:59
999;999;999;999;fullscreenExp;999;999;999;999;999;999;999;999;999;fullscreen;33;103334;0.0-33.0;3038149;05/05/2020 16:59
999;fixation_cross;999;999;fixation;1;2;2;6;2;8;2;12;1;html-keyboard-response;34;104339;0.0-34.0;3038149;05/05/2020 16:59
999;imgJS/WFN_scramble_67.jpg,imgJS/WFN_scramble_18.jpg,imgJS/WFN_scramble_84.jpg,imgJS/WFN_scramble_36.jpg,imgJS/WFN_scramble_8.jpg,imgJS/WFN_scramble_26.jpg,imgJS/WFN_scramble_42.jpg,imgJS/WFN_scramble_57.jpg,imgJS/WFN_15.jpg,imgJS/WFN_scramble_62.jpg,;999;999;rsvp_img_15;1;2;2;6;2;8;2;12;1;rsvp_flux;35;105392;0.0-35.0;3038149;05/05/2020 16:59
1521.7799999518;"<div style=""font-size:20px;""><p> Avez-vous vu au moins un homme? </p><p> <strong> Oui [O] / Non [N] </strong></p> </div>";999;79;rsvpAnswHom;1;2;2;6;2;8;2;12;1;html-keyboard-response;36;106917;0.0-36.0;3038149;05/05/2020 16:59
999;999;999;999;fullscreenExp;999;999;999;999;999;999;999;999;999;fullscreen;37;106966;0.0-37.0;3038149;05/05/2020 16:59
999;fixation_cross;999;999;fixation;1;3;2;5;2;8;3;12;0;html-keyboard-response;38;107971;0.0-38.0;3038149;05/05/2020 16:59
999;imgJS/WMN_scramble_74.jpg,imgJS/WMN_scramble_64.jpg,imgJS/WMN_scramble_70.jpg,imgJS/WMN_scramble_63.jpg,imgJS/WMN_scramble_50.jpg,imgJS/WMN_scramble_87.jpg,imgJS/WMN_scramble_82.jpg,imgJS/WMN_scramble_44.jpg,imgJS/WMN_9.jpg,imgJS/WMN_scramble_75.jpg,;999;999;rsvp_img_15;1;3;2;5;2;8;3;12;0;rsvp_flux;39;109025;0.0-39.0;3038149;05/05/2020 16:59
1361.6050001001;"<div style=""font-size:20px;""><p> Avez-vous vu au moins une femme? </p><p> <strong> Oui [O] / Non [N] </strong></p> </div>";999;79;rsvpAnswFem;1;3;2;5;2;8;3;12;0;html-keyboard-response;40;110389;0.0-40.0;3038149;05/05/2020 16:59
999;999;999;999;fullscreenExp;999;999;999;999;999;999;999;999;999;fullscreen;41;110437;0.0-41.0;3038149;05/05/2020 16:59
999;fixation_cross;999;999;fixation;1;4;2;4;2;7;2;9;2;html-keyboard-response;42;111442;0.0-42.0;3038149;05/05/2020 16:59
999;imgJS/WFN_scramble_42.jpg,imgJS/WFN_scramble_41.jpg,imgJS/WFN_scramble_7.jpg,imgJS/WFN_scramble_80.jpg,imgJS/WFN_scramble_66.jpg,imgJS/WFN_scramble_77.jpg,imgJS/WFN_scramble_84.jpg,imgJS/WFN_28.jpg,imgJS/WFN_scramble_28.jpg,imgJS/WFN_41.jpg,imgJS/WFN;999;999;rsvp_img_15;1;4;2;4;2;7;2;9;2;rsvp_flux;43;112497;0.0-43.0;3038149;05/05/2020 16:59
2844.4199999794;"<div style=""font-size:20px;""><p> Avez-vous vu au moins un homme? </p><p> <strong> Oui [O] / Non [N] </strong></p> </div>";999;79;rsvpAnswHom;1;4;2;4;2;7;2;9;2;html-keyboard-response;44;115344;0.0-44.0;3038149;05/05/2020 16:59
999;999;999;999;fullscreenExp;999;999;999;999;999;999;999;999;999;fullscreen;45;115389;0.0-45.0;3038149;05/05/2020 16:59
999;fixation_cross;999;999;fixation;1;5;2;6;2;4;2;8;0;html-keyboard-response;46;116394;0.0-46.0;3038149;05/05/2020 16:59
999;imgJS/WFN_scramble_43.jpg,imgJS/WFN_scramble_34.jpg,imgJS/WFN_scramble_1.jpg,imgJS/WFN_scramble_24.jpg,imgJS/WFN_14.jpg,imgJS/WFN_scramble_14.jpg,imgJS/WFN_scramble_43.jpg,imgJS/WFN_scramble_63.jpg,imgJS/WFF_22.jpg,imgJS/WFN_scramble_81.jpg,imgJS/WFN;999;999;rsvp_img_15;1;5;2;6;2;4;2;8;0;rsvp_flux;47;117448;0.0-47.0;3038149;05/05/2020 16:59
2412.4350000639;"<div style=""font-size:20px;""><p> Avez-vous vu au moins un homme? </p><p> <strong> Oui [O] / Non [N] </strong></p> </div>";999;78;rsvpAnswHom;1;5;2;6;2;4;2;8;0;html-keyboard-response;48;119864;0.0-48.0;3038149;05/05/2020 16:59
999;999;999;999;fullscreenExp;999;999;999;999;999;999;999;999;999;fullscreen;49;119906;0.0-49.0;3038149;05/05/2020 16:59
999;999;999;999;fullscreenExp;999;999;999;999;999;999;999;999;999;fullscreen;50;119947;0.0-50.0;3038149;05/05/2020 16:59
999;instructions/instructionsDiapo/Slide11.jpg;999;999;instr;999;999;999;999;999;999;999;999;999;image-keyboard-response;51;122983;0.0-51.0;3038149;05/05/2020 16:59
999;instructions/instructionsDiapo/Slide5.jpg;999;999;instrCondi;0;999;NULL;NULL;2;999;999;999;999;image-keyboard-response;52;126708;0.0-52.0;3038149;05/05/2020 16:59
999;fixation_cross;999;999;fixation;0;0;1;4;2;8;0;10;0;html-keyboard-response;53;127712;0.0-53.0;3038149;05/05/2020 16:59
999;imgJS/WFF_scramble_26.jpg,imgJS/WFF_scramble_22.jpg,imgJS/WFF_scramble_16.jpg,imgJS/WFF_scramble_23.jpg,imgJS/WFF_scramble_17.jpg,imgJS/WFF_scramble_30.jpg,imgJS/WFF_scramble_22.jpg,imgJS/WFF_scramble_28.jpg,imgJS/WFF_16.jpg,imgJS/WFF_scramble_28.jpg;999;999;rsvp_img_15;0;0;1;4;2;8;0;10;0;rsvp_flux;54;128766;0.0-54.0;3038149;05/05/2020 16:59
3136.9699999923;"<div style=""font-size:20px;""><p> Avez-vous vu au moins un homme? </p><p> <strong> Oui [O] / Non [N] </strong></p> </div>";999;79;rsvpAnswHom;0;0;1;4;2;8;0;10;0;html-keyboard-response;55;131905;0.0-55.0;3038149;05/05/2020 16:59
999;999;999;999;fullscreenExp;999;999;999;999;999;999;999;999;999;fullscreen;56;131953;0.0-56.0;3038149;05/05/2020 16:59
999;fixation_cross;999;999;fixation;0;1;1;1;2;8;1;10;2;html-keyboard-response;57;132958;0.0-57.0;3038149;05/05/2020 16:59
999;imgJS/WMF_scramble_5.jpg,imgJS/WMF_scramble_2.jpg,imgJS/WMF_scramble_22.jpg,imgJS/WMF_scramble_28.jpg,imgJS/WMF_scramble_5.jpg,imgJS/WMF_scramble_11.jpg,imgJS/WMF_scramble_17.jpg,imgJS/WMF_scramble_9.jpg,imgJS/WMF_25.jpg,imgJS/WMF_scramble_5.jpg,imgJ;999;999;rsvp_img_15;0;1;1;1;2;8;1;10;2;rsvp_flux;58;134013;0.0-58.0;3038149;05/05/2020 16:59
2937.0600000257;"<div style=""font-size:20px;""><p> Avez-vous vu au moins une femme? </p><p> <strong> Oui [O] / Non [N] </strong></p> </div>";999;79;rsvpAnswFem;0;1;1;1;2;8;1;10;2;html-keyboard-response;59;136953;0.0-59.0;3038149;05/05/2020 16:59
999;999;999;999;fullscreenExp;999;999;999;999;999;999;999;999;999;fullscreen;60;137001;0.0-60.0;3038149;05/05/2020 16:59
999;fixation_cross;999;999;fixation;0;2;1;2;2;4;0;8;2;html-keyboard-response;61;138005;0.0-61.0;3038149;05/05/2020 16:59
999;imgJS/WFF_scramble_30.jpg,imgJS/WFF_scramble_17.jpg,imgJS/WFF_scramble_9.jpg,imgJS/WFF_scramble_2.jpg,imgJS/WFF_24.jpg,imgJS/WFF_scramble_11.jpg,imgJS/WFF_scramble_28.jpg,imgJS/WFF_scramble_4.jpg,imgJS/WFN_23.jpg,imgJS/WFF_scramble_1.jpg,imgJS/WFF_sc;999;999;rsvp_img_15;0;2;1;2;2;4;0;8;2;rsvp_flux;62;139058;0.0-62.0;3038149;05/05/2020 16:59
2051.8699999666;"<div style=""font-size:20px;""><p> Avez-vous vu au moins un homme? </p><p> <strong> Oui [O] / Non [N] </strong></p> </div>";999;78;rsvpAnswHom;0;2;1;2;2;4;0;8;2;html-keyboard-response;63;141113;0.0-63.0;3038149;05/05/2020 16:59
999;999;999;999;fullscreenExp;999;999;999;999;999;999;999;999;999;fullscreen;64;141155;0.0-64.0;3038149;05/05/2020 16:59
999;fixation_cross;999;999;fixation;0;3;1;3;2;4;1;6;1;html-keyboard-response;65;142160;0.0-65.0;3038149;05/05/2020 16:59
999;imgJS/WMF_scramble_7.jpg,imgJS/WMF_scramble_27.jpg,imgJS/WMF_scramble_22.jpg,imgJS/WMF_scramble_4.jpg,imgJS/WMF_29.jpg,imgJS/WMF_scramble_6.jpg,imgJS/WMF_15.jpg,imgJS/WMF_scramble_18.jpg,imgJS/WMF_scramble_24.jpg,imgJS/WMF_scramble_7.jpg,imgJS/WMF_sc;999;999;rsvp_img_15;0;3;1;3;2;4;1;6;1;rsvp_flux;66;143213;0.0-66.0;3038149;05/05/2020 16:59
2107.0850000251;"<div style=""font-size:20px;""><p> Avez-vous vu au moins une femme? </p><p> <strong> Oui [O] / Non [N] </strong></p> </div>";999;79;rsvpAnswFem;0;3;1;3;2;4;1;6;1;html-keyboard-response;67;145324;0.0-67.0;3038149;05/05/2020 16:59
999;999;999;999;fullscreenExp;999;999;999;999;999;999;999;999;999;fullscreen;68;145365;0.0-68.0;3038149;05/05/2020 16:59
999;fixation_cross;999;999;fixation;0;4;1;3;2;7;3;11;3;html-keyboard-response;69;146370;0.0-69.0;3038149;05/05/2020 16:59
999;imgJS/WMN_scramble_58.jpg,imgJS/WMN_scramble_76.jpg,imgJS/WMN_scramble_44.jpg,imgJS/WMN_scramble_23.jpg,imgJS/WMN_scramble_88.jpg,imgJS/WMN_scramble_68.jpg,imgJS/WMN_scramble_45.jpg,imgJS/WMN_68.jpg,imgJS/WMN_scramble_75.jpg,imgJS/WMN_scramble_25.jpg;999;999;rsvp_img_15;0;4;1;3;2;7;3;11;3;rsvp_flux;70;147424;0.0-70.0;3038149;05/05/2020 16:59
2034.895000048;"<div style=""font-size:20px;""><p> Avez-vous vu au moins une femme? </p><p> <strong> Oui [O] / Non [N] </strong></p> </div>";999;78;rsvpAnswFem;0;4;1;3;2;7;3;11;3;html-keyboard-response;71;149462;0.0-71.0;3038149;05/05/2020 16:59
999;999;999;999;fullscreenExp;999;999;999;999;999;999;999;999;999;fullscreen;72;149512;0.0-72.0;3038149;05/05/2020 16:59
999;fixation_cross;999;999;fixation;0;5;1;2;2;4;0;8;2;html-keyboard-response;73;150517;0.0-73.0;3038149;05/05/2020 16:59
999;imgJS/WFF_scramble_8.jpg,imgJS/WFF_scramble_15.jpg,imgJS/WFF_scramble_16.jpg,imgJS/WFF_scramble_4.jpg,imgJS/WFF_14.jpg,imgJS/WFF_scramble_35.jpg,imgJS/WFF_scramble_24.jpg,imgJS/WFF_scramble_14.jpg,imgJS/WFN_37.jpg,imgJS/WFF_scramble_14.jpg,imgJS/WFF_;999;999;rsvp_img_15;0;5;1;2;2;4;0;8;2;rsvp_flux;74;151571;0.0-74.0;3038149;05/05/2020 16:59
2079.4199999655;"<div style=""font-size:20px;""><p> Avez-vous vu au moins un homme? </p><p> <strong> Oui [O] / Non [N] </strong></p> </div>";999;79;rsvpAnswHom;0;5;1;2;2;4;0;8;2;html-keyboard-response;75;153654;0.0-75.0;3038149;05/05/2020 16:59
999;999;999;999;fullscreenExp;999;999;999;999;999;999;999;999;999;fullscreen;76;153695;0.0-76.0;3038149;05/05/2020 16:59
999;fixation_cross;999;999;fixation;0;6;1;1;2;4;1;6;2;html-keyboard-response;77;154700;0.0-77.0;3038149;05/05/2020 16:59
999;imgJS/WMF_scramble_27.jpg,imgJS/WMF_scramble_9.jpg,imgJS/WMF_scramble_21.jpg,imgJS/WMF_scramble_14.jpg,imgJS/WMF_18.jpg,imgJS/WMF_scramble_13.jpg,imgJS/WFN_45.jpg,imgJS/WMF_scramble_4.jpg,imgJS/WMF_scramble_12.jpg,imgJS/WMF_scramble_18.jpg,imgJS/WMF_;999;999;rsvp_img_15;0;6;1;1;2;4;1;6;2;rsvp_flux;78;155753;0.0-78.0;3038149;05/05/2020 16:59
996.86000007205;"<div style=""font-size:20px;""><p> Avez-vous vu au moins une femme? </p><p> <strong> Oui [O] / Non [N] </strong></p> </div>";999;79;rsvpAnswFem;0;6;1;1;2;4;1;6;2;html-keyboard-response;79;156754;0.0-79.0;3038149;05/05/2020 16:59
999;999;999;999;fullscreenExp;999;999;999;999;999;999;999;999;999;fullscreen;80;156803;0.0-80.0;3038149;05/05/2020 16:59
999;fixation_cross;999;999;fixation;0;7;1;2;2;6;0;10;2;html-keyboard-response;81;157807;0.0-81.0;3038149;05/05/2020 16:59
999;imgJS/WFF_scramble_25.jpg,imgJS/WFF_scramble_33.jpg,imgJS/WFF_scramble_26.jpg,imgJS/WFF_scramble_24.jpg,imgJS/WFF_scramble_33.jpg,imgJS/WFF_scramble_20.jpg,imgJS/WFF_30.jpg,imgJS/WFF_scramble_26.jpg,imgJS/WFF_scramble_33.jpg,imgJS/WFF_scramble_13.jpg;999;999;rsvp_img_15;0;7;1;2;2;6;0;10;2;rsvp_flux;82;158861;0.0-82.0;3038149;05/05/2020 16:59
1276.8449999858;"<div style=""font-size:20px;""><p> Avez-vous vu au moins un homme? </p><p> <strong> Oui [O] / Non [N] </strong></p> </div>";999;78;rsvpAnswHom;0;7;1;2;2;6;0;10;2;html-keyboard-response;83;160141;0.0-83.0;3038149;05/05/2020 16:59
999;999;999;999;fullscreenExp;999;999;999;999;999;999;999;999;999;fullscreen;84;160184;0.0-84.0;3038149;05/05/2020 16:59
999;fixation_cross;999;999;fixation;0;8;1;2;2;5;0;7;3;html-keyboard-response;85;161189;0.0-85.0;3038149;05/05/2020 16:59
999;imgJS/WFF_scramble_34.jpg,imgJS/WFF_scramble_34.jpg,imgJS/WFF_scramble_24.jpg,imgJS/WFF_scramble_35.jpg,imgJS/WFF_scramble_34.jpg,imgJS/WFF_7.jpg,imgJS/WFF_scramble_28.jpg,imgJS/WMN_66.jpg,imgJS/WFF_scramble_15.jpg,imgJS/WFF_scramble_34.jpg,imgJS/WFF;999;999;rsvp_img_15;0;8;1;2;2;5;0;7;3;rsvp_flux;86;162243;0.0-86.0;3038149;05/05/2020 16:59
1128.7849999499;"<div style=""font-size:20px;""><p> Avez-vous vu au moins un homme? </p><p> <strong> Oui [O] / Non [N] </strong></p> </div>";999;78;rsvpAnswHom;0;8;1;2;2;5;0;7;3;html-keyboard-response;87;163376;0.0-87.0;3038149;05/05/2020 16:59
999;999;999;999;fullscreenExp;999;999;999;999;999;999;999;999;999;fullscreen;88;163424;0.0-88.0;3038149;05/05/2020 16:59
999;imgJS/WMF_scramble_1.jpg,imgJS/WMF_scramble_23.jpg,imgJS/WMF_scramble_11.jpg,imgJS/WMF_scramble_12.jpg,imgJS/WMF_25.jpg,imgJS/WMF_scramble_14.jpg,imgJS/WMN_18.jpg,imgJS/WMF_scramble_3.jpg,imgJS/WMF_scramble_29.jpg,imgJS/WMF_scramble_1.jpg,imgJS/WMF_s;999;999;rsvp_img_15;0;9;1;1;2;4;1;6;3;rsvp_flux;90;165483;0.0-90.0;3038149;05/05/2020 16:59
999;fixation_cross;999;999;fixation;0;9;1;1;2;4;1;6;3;html-keyboard-response;89;164429;0.0-89.0;3038149;05/05/2020 16:59
1886.8449999718;"<div style=""font-size:20px;""><p> Avez-vous vu au moins une femme? </p><p> <strong> Oui [O] / Non [N] </strong></p> </div>";999;79;rsvpAnswFem;0;9;1;1;2;4;1;6;3;html-keyboard-response;91;167374;0.0-91.0;3038149;05/05/2020 16:59
999;999;999;999;fullscreenExp;999;999;999;999;999;999;999;999;999;fullscreen;92;167419;0.0-92.0;3038149;05/05/2020 16:59
999;fixation_cross;999;999;fixation;0;10;1;4;2;5;0;7;0;html-keyboard-response;93;168424;0.0-93.0;3038149;05/05/2020 16:59
999;imgJS/WFF_scramble_34.jpg,imgJS/WFF_scramble_23.jpg,imgJS/WFF_scramble_21.jpg,imgJS/WFF_scramble_7.jpg,imgJS/WFF_scramble_28.jpg,imgJS/WFF_30.jpg,imgJS/WFF_scramble_30.jpg,imgJS/WFF_35.jpg,imgJS/WFF_scramble_4.jpg,imgJS/WFF_scramble_17.jpg,imgJS/WFF_;999;999;rsvp_img_15;0;10;1;4;2;5;0;7;0;rsvp_flux;94;169478;0.0-94.0;3038149;05/05/2020 16:59
2212.1449999977;"<div style=""font-size:20px;""><p> Avez-vous vu au moins un homme? </p><p> <strong> Oui [O] / Non [N] </strong></p> </div>";999;78;rsvpAnswHom;0;10;1;4;2;5;0;7;0;html-keyboard-response;95;171694;0.0-95.0;3038149;05/05/2020 16:59
999;999;999;999;fullscreenExp;999;999;999;999;999;999;999;999;999;fullscreen;96;171731;0.0-96.0;3038149;05/05/2020 16:59
999;imgJS/WMF_scramble_11.jpg,imgJS/WMF_scramble_6.jpg,imgJS/WMF_scramble_18.jpg,imgJS/WMF_scramble_18.jpg,imgJS/WMF_27.jpg,imgJS/WMF_scramble_9.jpg,imgJS/WFN_46.jpg,imgJS/WMF_scramble_22.jpg,imgJS/WMF_scramble_15.jpg,imgJS/WMF_scramble_24.jpg,imgJS/WMF_;999;999;rsvp_img_15;0;11;1;1;2;4;1;6;2;rsvp_flux;98;173795;0.0-98.0;3038149;05/05/2020 16:59
999;fixation_cross;999;999;fixation;0;11;1;1;2;4;1;6;2;html-keyboard-response;97;172740;0.0-97.0;3038149;05/05/2020 16:59
2479.2199999793;"<div style=""font-size:20px;""><p> Avez-vous vu au moins une femme? </p><p> <strong> Oui [O] / Non [N] </strong></p> </div>";999;79;rsvpAnswFem;0;11;1;1;2;4;1;6;2;html-keyboard-response;99;176276;0.0-99.0;3038149;05/05/2020 16:59
999;999;999;999;fullscreenExp;999;999;999;999;999;999;999;999;999;fullscreen;100;176314;0.0-100.0;3038149;05/05/2020 16:59
999;fixation_cross;999;999;fixation;0;12;1;1;2;5;1;7;2;html-keyboard-response;101;177318;0.0-101.0;3038149;05/05/2020 16:59
999;imgJS/WMF_scramble_18.jpg,imgJS/WMF_scramble_28.jpg,imgJS/WMF_scramble_6.jpg,imgJS/WMF_scramble_12.jpg,imgJS/WMF_scramble_28.jpg,imgJS/WMF_21.jpg,imgJS/WMF_scramble_26.jpg,imgJS/WFN_19.jpg,imgJS/WMF_scramble_16.jpg,imgJS/WMF_scramble_27.jpg,imgJS/WMF;999;999;rsvp_img_15;0;12;1;1;2;5;1;7;2;rsvp_flux;102;178372;0.0-102.0;3038149;05/05/2020 16:59
1403.0499999644;"<div style=""font-size:20px;""><p> Avez-vous vu au moins une femme? </p><p> <strong> Oui [O] / Non [N] </strong></p> </div>";999;79;rsvpAnswFem;0;12;1;1;2;5;1;7;2;html-keyboard-response;103;179778;0.0-103.0;3038149;05/05/2020 16:59
999;999;999;999;fullscreenExp;999;999;999;999;999;999;999;999;999;fullscreen;104;179815;0.0-104.0;3038149;05/05/2020 16:59
999;fixation_cross;999;999;fixation;0;13;1;1;2;6;1;10;2;html-keyboard-response;105;180820;0.0-105.0;3038149;05/05/2020 16:59
999;imgJS/WMF_scramble_5.jpg,imgJS/WMF_scramble_20.jpg,imgJS/WMF_scramble_28.jpg,imgJS/WMF_scramble_27.jpg,imgJS/WMF_scramble_25.jpg,imgJS/WMF_scramble_10.jpg,imgJS/WMF_28.jpg,imgJS/WMF_scramble_23.jpg,imgJS/WMF_scramble_20.jpg,imgJS/WMF_scramble_16.jpg,;999;999;rsvp_img_15;0;13;1;1;2;6;1;10;2;rsvp_flux;106;181873;0.0-106.0;3038149;05/05/2020 16:59
893.64000002388;"<div style=""font-size:20px;""><p> Avez-vous vu au moins une femme? </p><p> <strong> Oui [O] / Non [N] </strong></p> </div>";999;79;rsvpAnswFem;0;13;1;1;2;6;1;10;2;html-keyboard-response;107;182770;0.0-107.0;3038149;05/05/2020 16:59
999;999;999;999;fullscreenExp;999;999;999;999;999;999;999;999;999;fullscreen;108;182808;0.0-108.0;3038149;05/05/2020 16:59
999;fixation_cross;999;999;fixation;0;14;1;1;2;5;1;7;2;html-keyboard-response;109;183812;0.0-109.0;3038149;05/05/2020 16:59
999;imgJS/WMF_scramble_1.jpg,imgJS/WMF_scramble_7.jpg,imgJS/WMF_scramble_19.jpg,imgJS/WMF_scramble_2.jpg,imgJS/WMF_scramble_28.jpg,imgJS/WMF_14.jpg,imgJS/WMF_scramble_3.jpg,imgJS/WFN_41.jpg,imgJS/WMF_scramble_22.jpg,imgJS/WMF_scramble_12.jpg,imgJS/WMF_sc;999;999;rsvp_img_15;0;14;1;1;2;5;1;7;2;rsvp_flux;110;184865;0.0-110.0;3038149;05/05/2020 16:59
894.24499997403;"<div style=""font-size:20px;""><p> Avez-vous vu au moins une femme? </p><p> <strong> Oui [O] / Non [N] </strong></p> </div>";999;79;rsvpAnswFem;0;14;1;1;2;5;1;7;2;html-keyboard-response;111;185762;0.0-111.0;3038149;05/05/2020 16:59
999;999;999;999;fullscreenExp;999;999;999;999;999;999;999;999;999;fullscreen;112;185805;0.0-112.0;3038149;05/05/2020 16:59
999;fixation_cross;999;999;fixation;0;15;1;2;2;8;0;10;2;html-keyboard-response;113;186810;0.0-113.0;3038149;05/05/2020 16:59
999;imgJS/WFF_scramble_8.jpg,imgJS/WFF_scramble_1.jpg,imgJS/WFF_scramble_1.jpg,imgJS/WFF_scramble_14.jpg,imgJS/WFF_scramble_15.jpg,imgJS/WFF_scramble_13.jpg,imgJS/WFF_scramble_35.jpg,imgJS/WFF_scramble_8.jpg,imgJS/WFF_16.jpg,imgJS/WFF_scramble_10.jpg,img;999;999;rsvp_img_15;0;15;1;2;2;8;0;10;2;rsvp_flux;114;187864;0.0-114.0;3038149;05/05/2020 16:59
1473.2599999988;"<div style=""font-size:20px;""><p> Avez-vous vu au moins un homme? </p><p> <strong> Oui [O] / Non [N] </strong></p> </div>";999;78;rsvpAnswHom;0;15;1;2;2;8;0;10;2;html-keyboard-response;115;189341;0.0-115.0;3038149;05/05/2020 16:59
999;999;999;999;fullscreenExp;999;999;999;999;999;999;999;999;999;fullscreen;116;189383;0.0-116.0;3038149;05/05/2020 16:59
999;fixation_cross;999;999;fixation;0;16;1;4;2;8;2;12;2;html-keyboard-response;117;190388;0.0-117.0;3038149;05/05/2020 16:59
999;imgJS/WFN_scramble_82.jpg,imgJS/WFN_scramble_61.jpg,imgJS/WFN_scramble_49.jpg,imgJS/WFN_scramble_47.jpg,imgJS/WFN_scramble_60.jpg,imgJS/WFN_scramble_48.jpg,imgJS/WFN_scramble_25.jpg,imgJS/WFN_scramble_59.jpg,imgJS/WFN_63.jpg,imgJS/WFN_scramble_85.jpg;999;999;rsvp_img_15;0;16;1;4;2;8;2;12;2;rsvp_flux;118;191441;0.0-118.0;3038149;05/05/2020 16:59
1012.5150000677;"<div style=""font-size:20px;""><p> Avez-vous vu au moins un homme? </p><p> <strong> Oui [O] / Non [N] </strong></p> </div>";999;78;rsvpAnswHom;0;16;1;4;2;8;2;12;2;html-keyboard-response;119;192456;0.0-119.0;3038149;05/05/2020 16:59
999;999;999;999;fullscreenExp;999;999;999;999;999;999;999;999;999;fullscreen;120;192521;0.0-120.0;3038149;05/05/2020 16:59
999;fixation_cross;999;999;fixation;0;17;1;3;2;7;3;9;2;html-keyboard-response;121;193527;0.0-121.0;3038149;05/05/2020 16:59
999;imgJS/WMN_scramble_6.jpg,imgJS/WMN_scramble_73.jpg,imgJS/WMN_scramble_37.jpg,imgJS/WMN_scramble_47.jpg,imgJS/WMN_scramble_19.jpg,imgJS/WMN_scramble_55.jpg,imgJS/WMN_scramble_16.jpg,imgJS/WMN_69.jpg,imgJS/WMN_scramble_87.jpg,imgJS/WFN_59.jpg,imgJS/WMN;999;999;rsvp_img_15;0;17;1;3;2;7;3;9;2;rsvp_flux;122;194580;0.0-122.0;3038149;05/05/2020 16:59
2215.3049999615;"<div style=""font-size:20px;""><p> Avez-vous vu au moins une femme? </p><p> <strong> Oui [O] / Non [N] </strong></p> </div>";999;79;rsvpAnswFem;0;17;1;3;2;7;3;9;2;html-keyboard-response;123;196798;0.0-123.0;3038149;05/05/2020 16:59
999;999;999;999;fullscreenExp;999;999;999;999;999;999;999;999;999;fullscreen;124;196837;0.0-124.0;3038149;05/05/2020 16:59
999;fixation_cross;999;999;fixation;0;18;1;2;2;8;0;10;3;html-keyboard-response;125;197841;0.0-125.0;3038149;05/05/2020 16:59
999;imgJS/WFF_scramble_23.jpg,imgJS/WFF_scramble_34.jpg,imgJS/WFF_scramble_33.jpg,imgJS/WFF_scramble_22.jpg,imgJS/WFF_scramble_18.jpg,imgJS/WFF_scramble_7.jpg,imgJS/WFF_scramble_29.jpg,imgJS/WFF_scramble_10.jpg,imgJS/WFF_23.jpg,imgJS/WFF_scramble_14.jpg,;999;999;rsvp_img_15;0;18;1;2;2;8;0;10;3;rsvp_flux;126;198894;0.0-126.0;3038149;05/05/2020 16:59
6570.3549999744;"<div style=""font-size:20px;""><p> Avez-vous vu au moins un homme? </p><p> <strong> Oui [O] / Non [N] </strong></p> </div>";999;78;rsvpAnswHom;0;18;1;2;2;8;0;10;3;html-keyboard-response;127;205468;0.0-127.0;3038149;05/05/2020 16:59
999;999;999;999;fullscreenExp;999;999;999;999;999;999;999;999;999;fullscreen;128;205520;0.0-128.0;3038149;05/05/2020 16:59
999;fixation_cross;999;999;fixation;0;19;1;1;2;4;1;6;3;html-keyboard-response;129;206523;0.0-129.0;3038149;05/05/2020 16:59
999;imgJS/WMF_scramble_29.jpg,imgJS/WMF_scramble_16.jpg,imgJS/WMF_scramble_29.jpg,imgJS/WMF_scramble_3.jpg,imgJS/WMF_1.jpg,imgJS/WMF_scramble_13.jpg,imgJS/WMN_38.jpg,imgJS/WMF_scramble_17.jpg,imgJS/WMF_scramble_28.jpg,imgJS/WMF_scramble_17.jpg,imgJS/WMF_;999;999;rsvp_img_15;0;19;1;1;2;4;1;6;3;rsvp_flux;130;207578;0.0-130.0;3038149;05/05/2020 16:59
1214.8700000253;"<div style=""font-size:20px;""><p> Avez-vous vu au moins une femme? </p><p> <strong> Oui [O] / Non [N] </strong></p> </div>";999;79;rsvpAnswFem;0;19;1;1;2;4;1;6;3;html-keyboard-response;131;208796;0.0-131.0;3038149;05/05/2020 16:59
999;999;999;999;fullscreenExp;999;999;999;999;999;999;999;999;999;fullscreen;132;208839;0.0-132.0;3038149;05/05/2020 16:59
999;fixation_cross;999;999;fixation;0;20;1;2;2;4;0;6;3;html-keyboard-response;133;209843;0.0-133.0;3038149;05/05/2020 16:59
999;imgJS/WFF_scramble_36.jpg,imgJS/WFF_scramble_23.jpg,imgJS/WFF_scramble_20.jpg,imgJS/WFF_scramble_3.jpg,imgJS/WFF_29.jpg,imgJS/WFF_scramble_18.jpg,imgJS/WMN_71.jpg,imgJS/WFF_scramble_5.jpg,imgJS/WFF_scramble_23.jpg,imgJS/WFF_scramble_16.jpg,imgJS/WFF_;999;999;rsvp_img_15;0;20;1;2;2;4;0;6;3;rsvp_flux;134;210898;0.0-134.0;3038149;05/05/2020 16:59
2282.1799999801;"<div style=""font-size:20px;""><p> Avez-vous vu au moins un homme? </p><p> <strong> Oui [O] / Non [N] </strong></p> </div>";999;78;rsvpAnswHom;0;20;1;2;2;4;0;6;3;html-keyboard-response;135;213183;0.0-135.0;3038149;05/05/2020 16:59
999;999;999;999;fullscreenExp;999;999;999;999;999;999;999;999;999;fullscreen;136;213231;0.0-136.0;3038149;05/05/2020 16:59
999;fixation_cross;999;999;fixation;0;21;1;1;2;4;1;8;3;html-keyboard-response;137;214236;0.0-137.0;3038149;05/05/2020 16:59
999;imgJS/WMF_scramble_3.jpg,imgJS/WMF_scramble_9.jpg,imgJS/WMF_scramble_21.jpg,imgJS/WMF_scramble_5.jpg,imgJS/WMF_23.jpg,imgJS/WMF_scramble_29.jpg,imgJS/WMF_scramble_25.jpg,imgJS/WMF_scramble_4.jpg,imgJS/WMN_48.jpg,imgJS/WMF_scramble_5.jpg,imgJS/WMF_scr;999;999;rsvp_img_15;0;21;1;1;2;4;1;8;3;rsvp_flux;138;215289;0.0-138.0;3038149;05/05/2020 16:59
1086.234999937;"<div style=""font-size:20px;""><p> Avez-vous vu au moins une femme? </p><p> <strong> Oui [O] / Non [N] </strong></p> </div>";999;79;rsvpAnswFem;0;21;1;1;2;4;1;8;3;html-keyboard-response;139;216379;0.0-139.0;3038149;05/05/2020 16:59
999;999;999;999;fullscreenExp;999;999;999;999;999;999;999;999;999;fullscreen;140;216424;0.0-140.0;3038149;05/05/2020 16:59
999;fixation_cross;999;999;fixation;0;22;1;4;2;8;0;12;1;html-keyboard-response;141;217429;0.0-141.0;3038149;05/05/2020 16:59
999;imgJS/WFF_scramble_1.jpg,imgJS/WFF_scramble_21.jpg,imgJS/WFF_scramble_12.jpg,imgJS/WFF_scramble_12.jpg,imgJS/WFF_scramble_7.jpg,imgJS/WFF_scramble_21.jpg,imgJS/WFF_scramble_17.jpg,imgJS/WFF_scramble_24.jpg,imgJS/WFF_20.jpg,imgJS/WFF_scramble_33.jpg,i;999;999;rsvp_img_15;0;22;1;4;2;8;0;12;1;rsvp_flux;142;218484;0.0-142.0;3038149;05/05/2020 16:59
2028.9000000339;"<div style=""font-size:20px;""><p> Avez-vous vu au moins un homme? </p><p> <strong> Oui [O] / Non [N] </strong></p> </div>";999;79;rsvpAnswHom;0;22;1;4;2;8;0;12;1;html-keyboard-response;143;220517;0.0-143.0;3038149;05/05/2020 16:59
999;999;999;999;fullscreenExp;999;999;999;999;999;999;999;999;999;fullscreen;144;220558;0.0-144.0;3038149;05/05/2020 16:59
999;fixation_cross;999;999;fixation;0;23;1;2;2;5;0;9;3;html-keyboard-response;145;221562;0.0-145.0;3038149;05/05/2020 16:59
999;imgJS/WFF_scramble_18.jpg,imgJS/WFF_scramble_6.jpg,imgJS/WFF_scramble_32.jpg,imgJS/WFF_scramble_10.jpg,imgJS/WFF_scramble_7.jpg,imgJS/WFF_24.jpg,imgJS/WFF_scramble_23.jpg,imgJS/WFF_scramble_11.jpg,imgJS/WFF_scramble_11.jpg,imgJS/WMN_69.jpg,imgJS/WFF_;999;999;rsvp_img_15;0;23;1;2;2;5;0;9;3;rsvp_flux;146;222617;0.0-146.0;3038149;05/05/2020 16:59
1108.6450000294;"<div style=""font-size:20px;""><p> Avez-vous vu au moins un homme? </p><p> <strong> Oui [O] / Non [N] </strong></p> </div>";999;79;rsvpAnswHom;0;23;1;2;2;5;0;9;3;html-keyboard-response;147;223729;0.0-147.0;3038149;05/05/2020 16:59
999;999;999;999;fullscreenExp;999;999;999;999;999;999;999;999;999;fullscreen;148;223770;0.0-148.0;3038149;05/05/2020 16:59
999;fixation_cross;999;999;fixation;0;24;1;3;2;8;1;10;0;html-keyboard-response;149;224774;0.0-149.0;3038149;05/05/2020 16:59
999;imgJS/WMF_scramble_14.jpg,imgJS/WMF_scramble_22.jpg,imgJS/WMF_scramble_22.jpg,imgJS/WMF_scramble_28.jpg,imgJS/WMF_scramble_18.jpg,imgJS/WMF_scramble_29.jpg,imgJS/WMF_scramble_10.jpg,imgJS/WMF_scramble_3.jpg,imgJS/WMF_6.jpg,imgJS/WMF_scramble_25.jpg,i;999;999;rsvp_img_15;0;24;1;3;2;8;1;10;0;rsvp_flux;150;225828;0.0-150.0;3038149;05/05/2020 16:59
2565.3000000166;"<div style=""font-size:20px;""><p> Avez-vous vu au moins une femme? </p><p> <strong> Oui [O] / Non [N] </strong></p> </div>";999;79;rsvpAnswFem;0;24;1;3;2;8;1;10;0;html-keyboard-response;151;228397;0.0-151.0;3038149;05/05/2020 16:59
999;999;999;999;fullscreenExp;999;999;999;999;999;999;999;999;999;fullscreen;152;228439;0.0-152.0;3038149;05/05/2020 16:59
999;fixation_cross;999;999;fixation;0;25;1;4;2;5;0;9;1;html-keyboard-response;153;229444;0.0-153.0;3038149;05/05/2020 16:59
999;imgJS/WFF_scramble_24.jpg,imgJS/WFF_scramble_16.jpg,imgJS/WFF_scramble_36.jpg,imgJS/WFF_scramble_30.jpg,imgJS/WFF_scramble_27.jpg,imgJS/WFF_24.jpg,imgJS/WFF_scramble_19.jpg,imgJS/WFF_scramble_27.jpg,imgJS/WFF_scramble_28.jpg,imgJS/WMF_16.jpg,imgJS/WF;999;999;rsvp_img_15;0;25;1;4;2;5;0;9;1;rsvp_flux;154;230498;0.0-154.0;3038149;05/05/2020 16:59
2141.8050000211;"<div style=""font-size:20px;""><p> Avez-vous vu au moins un homme? </p><p> <strong> Oui [O] / Non [N] </strong></p> </div>";999;79;rsvpAnswHom;0;25;1;4;2;5;0;9;1;html-keyboard-response;155;232644;0.0-155.0;3038149;05/05/2020 16:59
999;999;999;999;fullscreenExp;999;999;999;999;999;999;999;999;999;fullscreen;156;232683;0.0-156.0;3038149;05/05/2020 16:59
999;fixation_cross;999;999;fixation;0;26;1;1;2;7;1;11;2;html-keyboard-response;157;233692;0.0-157.0;3038149;05/05/2020 16:59
999;imgJS/WMF_scramble_27.jpg,imgJS/WMF_scramble_24.jpg,imgJS/WMF_scramble_8.jpg,imgJS/WMF_scramble_4.jpg,imgJS/WMF_scramble_17.jpg,imgJS/WMF_scramble_15.jpg,imgJS/WMF_scramble_25.jpg,imgJS/WMF_24.jpg,imgJS/WMF_scramble_23.jpg,imgJS/WMF_scramble_5.jpg,im;999;999;rsvp_img_15;0;26;1;1;2;7;1;11;2;rsvp_flux;158;234745;0.0-158.0;3038149;05/05/2020 16:59
2328.8399999728;"<div style=""font-size:20px;""><p> Avez-vous vu au moins une femme? </p><p> <strong> Oui [O] / Non [N] </strong></p> </div>";999;79;rsvpAnswFem;0;26;1;1;2;7;1;11;2;html-keyboard-response;159;237077;0.0-159.0;3038149;05/05/2020 16:59
999;999;999;999;fullscreenExp;999;999;999;999;999;999;999;999;999;fullscreen;160;237114;0.0-160.0;3038149;05/05/2020 16:59
999;fixation_cross;999;999;fixation;0;27;1;3;2;4;3;6;2;html-keyboard-response;161;238120;0.0-161.0;3038149;05/05/2020 16:59
999;imgJS/WMN_scramble_41.jpg,imgJS/WMN_scramble_35.jpg,imgJS/WMN_scramble_52.jpg,imgJS/WMN_scramble_15.jpg,imgJS/WMN_90.jpg,imgJS/WMN_scramble_87.jpg,imgJS/WFN_14.jpg,imgJS/WMN_scramble_60.jpg,imgJS/WMN_scramble_91.jpg,imgJS/WMN_scramble_28.jpg,imgJS/WM;999;999;rsvp_img_15;0;27;1;3;2;4;3;6;2;rsvp_flux;162;239174;0.0-162.0;3038149;05/05/2020 16:59
1495.2349999221;"<div style=""font-size:20px;""><p> Avez-vous vu au moins une femme? </p><p> <strong> Oui [O] / Non [N] </strong></p> </div>";999;78;rsvpAnswFem;0;27;1;3;2;4;3;6;2;html-keyboard-response;163;240672;0.0-163.0;3038149;05/05/2020 16:59
999;999;999;999;fullscreenExp;999;999;999;999;999;999;999;999;999;fullscreen;164;240713;0.0-164.0;3038149;05/05/2020 16:59
999;fixation_cross;999;999;fixation;0;28;1;2;2;6;0;8;3;html-keyboard-response;165;241717;0.0-165.0;3038149;05/05/2020 16:59
999;imgJS/WFF_scramble_32.jpg,imgJS/WFF_scramble_26.jpg,imgJS/WFF_scramble_4.jpg,imgJS/WFF_scramble_25.jpg,imgJS/WFF_scramble_25.jpg,imgJS/WFF_scramble_5.jpg,imgJS/WFF_29.jpg,imgJS/WFF_scramble_20.jpg,imgJS/WMN_46.jpg,imgJS/WFF_scramble_5.jpg,imgJS/WFF_s;999;999;rsvp_img_15;0;28;1;2;2;6;0;8;3;rsvp_flux;166;242771;0.0-166.0;3038149;05/05/2020 16:59
2167.3899999587;"<div style=""font-size:20px;""><p> Avez-vous vu au moins un homme? </p><p> <strong> Oui [O] / Non [N] </strong></p> </div>";999;79;rsvpAnswHom;0;28;1;2;2;6;0;8;3;html-keyboard-response;167;244941;0.0-167.0;3038149;05/05/2020 16:59
999;999;999;999;fullscreenExp;999;999;999;999;999;999;999;999;999;fullscreen;168;244979;0.0-168.0;3038149;05/05/2020 16:59
999;fixation_cross;999;999;fixation;0;29;1;2;2;5;0;9;3;html-keyboard-response;169;245992;0.0-169.0;3038149;05/05/2020 16:59
999;imgJS/WFF_scramble_1.jpg,imgJS/WFF_scramble_36.jpg,imgJS/WFF_scramble_14.jpg,imgJS/WFF_scramble_8.jpg,imgJS/WFF_scramble_34.jpg,imgJS/WFF_32.jpg,imgJS/WFF_scramble_33.jpg,imgJS/WFF_scramble_12.jpg,imgJS/WFF_scramble_11.jpg,imgJS/WMN_12.jpg,imgJS/WFF_;999;999;rsvp_img_15;0;29;1;2;2;5;0;9;3;rsvp_flux;170;247048;0.0-170.0;3038149;05/05/2020 16:59
1820.3100000974;"<div style=""font-size:20px;""><p> Avez-vous vu au moins un homme? </p><p> <strong> Oui [O] / Non [N] </strong></p> </div>";999;79;rsvpAnswHom;0;29;1;2;2;5;0;9;3;html-keyboard-response;171;248872;0.0-171.0;3038149;05/05/2020 16:59
999;999;999;999;fullscreenExp;999;999;999;999;999;999;999;999;999;fullscreen;172;248910;0.0-172.0;3038149;05/05/2020 16:59
999;instructions/instructionsDiapo/Slide5.jpg;999;999;instrCondi;1;999;NULL;NULL;2;999;999;999;999;image-keyboard-response;173;262601;0.0-173.0;3038149;05/05/2020 16:59
999;fixation_cross;999;999;fixation;1;0;1;3;2;8;1;10;1;html-keyboard-response;174;263606;0.0-174.0;3038149;05/05/2020 16:59
999;imgJS/WMF_scramble_14.jpg,imgJS/WMF_scramble_1.jpg,imgJS/WMF_scramble_9.jpg,imgJS/WMF_scramble_20.jpg,imgJS/WMF_scramble_6.jpg,imgJS/WMF_scramble_28.jpg,imgJS/WMF_scramble_27.jpg,imgJS/WMF_scramble_23.jpg,imgJS/WMF_27.jpg,imgJS/WMF_scramble_1.jpg,img;999;999;rsvp_img_15;1;0;1;3;2;8;1;10;1;rsvp_flux;175;264660;0.0-175.0;3038149;05/05/2020 16:59
1590.7049999805;"<div style=""font-size:20px;""><p> Avez-vous vu au moins une femme? </p><p> <strong> Oui [O] / Non [N] </strong></p> </div>";999;79;rsvpAnswFem;1;0;1;3;2;8;1;10;1;html-keyboard-response;176;266254;0.0-176.0;3038149;05/05/2020 16:59
999;999;999;999;fullscreenExp;999;999;999;999;999;999;999;999;999;fullscreen;177;266302;0.0-177.0;3038149;05/05/2020 16:59
999;fixation_cross;999;999;fixation;1;1;1;2;2;5;0;7;3;html-keyboard-response;178;267307;0.0-178.0;3038149;05/05/2020 16:59
999;imgJS/WFF_scramble_33.jpg,imgJS/WFF_scramble_16.jpg,imgJS/WFF_scramble_9.jpg,imgJS/WFF_scramble_13.jpg,imgJS/WFF_scramble_8.jpg,imgJS/WFF_27.jpg,imgJS/WFF_scramble_9.jpg,imgJS/WMN_62.jpg,imgJS/WFF_scramble_16.jpg,imgJS/WFF_scramble_22.jpg,imgJS/WFF_s;999;999;rsvp_img_15;1;1;1;2;2;5;0;7;3;rsvp_flux;179;268362;0.0-179.0;3038149;05/05/2020 16:59
2406.1799999326;"<div style=""font-size:20px;""><p> Avez-vous vu au moins un homme? </p><p> <strong> Oui [O] / Non [N] </strong></p> </div>";999;79;rsvpAnswHom;1;1;1;2;2;5;0;7;3;html-keyboard-response;180;270772;0.0-180.0;3038149;05/05/2020 16:59
999;999;999;999;fullscreenExp;999;999;999;999;999;999;999;999;999;fullscreen;181;270829;0.0-181.0;3038149;05/05/2020 16:59
999;fixation_cross;999;999;fixation;1;2;1;3;2;4;1;8;1;html-keyboard-response;182;271836;0.0-182.0;3038149;05/05/2020 16:59
999;imgJS/WMF_scramble_29.jpg,imgJS/WMF_scramble_19.jpg,imgJS/WMF_scramble_17.jpg,imgJS/WMF_scramble_17.jpg,imgJS/WMF_11.jpg,imgJS/WMF_scramble_24.jpg,imgJS/WMF_scramble_23.jpg,imgJS/WMF_scramble_15.jpg,imgJS/WMF_18.jpg,imgJS/WMF_scramble_4.jpg,imgJS/WMF;999;999;rsvp_img_15;1;2;1;3;2;4;1;8;1;rsvp_flux;183;272890;0.0-183.0;3038149;05/05/2020 16:59
2087.034999975;"<div style=""font-size:20px;""><p> Avez-vous vu au moins une femme? </p><p> <strong> Oui [O] / Non [N] </strong></p> </div>";999;79;rsvpAnswFem;1;2;1;3;2;4;1;8;1;html-keyboard-response;184;274980;0.0-184.0;3038149;05/05/2020 16:59
999;999;999;999;fullscreenExp;999;999;999;999;999;999;999;999;999;fullscreen;185;275029;0.0-185.0;3038149;05/05/2020 16:59
999;fixation_cross;999;999;fixation;1;3;1;2;2;6;0;10;2;html-keyboard-response;186;276033;0.0-186.0;3038149;05/05/2020 16:59
999;imgJS/WFF_scramble_19.jpg,imgJS/WFF_scramble_33.jpg,imgJS/WFF_scramble_36.jpg,imgJS/WFF_scramble_35.jpg,imgJS/WFF_scramble_15.jpg,imgJS/WFF_scramble_2.jpg,imgJS/WFF_16.jpg,imgJS/WFF_scramble_4.jpg,imgJS/WFF_scramble_26.jpg,imgJS/WFF_scramble_32.jpg,i;999;999;rsvp_img_15;1;3;1;2;2;6;0;10;2;rsvp_flux;187;277087;0.0-187.0;3038149;05/05/2020 16:59
2506.2499999767;"<div style=""font-size:20px;""><p> Avez-vous vu au moins un homme? </p><p> <strong> Oui [O] / Non [N] </strong></p> </div>";999;78;rsvpAnswHom;1;3;1;2;2;6;0;10;2;html-keyboard-response;188;279596;0.0-188.0;3038149;05/05/2020 16:59
999;999;999;999;fullscreenExp;999;999;999;999;999;999;999;999;999;fullscreen;189;279635;0.0-189.0;3038149;05/05/2020 16:59
999;fixation_cross;999;999;fixation;1;4;1;4;2;8;0;12;1;html-keyboard-response;190;280645;0.0-190.0;3038149;05/05/2020 16:59
999;imgJS/WFF_scramble_9.jpg,imgJS/WFF_scramble_32.jpg,imgJS/WFF_scramble_17.jpg,imgJS/WFF_scramble_34.jpg,imgJS/WFF_scramble_3.jpg,imgJS/WFF_scramble_9.jpg,imgJS/WFF_scramble_33.jpg,imgJS/WFF_scramble_26.jpg,imgJS/WFF_19.jpg,imgJS/WFF_scramble_23.jpg,im;999;999;rsvp_img_15;1;4;1;4;2;8;0;12;1;rsvp_flux;191;281699;0.0-191.0;3038149;05/05/2020 16:59
1974.3999999482;"<div style=""font-size:20px;""><p> Avez-vous vu au moins un homme? </p><p> <strong> Oui [O] / Non [N] </strong></p> </div>";999;78;rsvpAnswHom;1;4;1;4;2;8;0;12;1;html-keyboard-response;192;283676;0.0-192.0;3038149;05/05/2020 16:59
999;999;999;999;fullscreenExp;999;999;999;999;999;999;999;999;999;fullscreen;193;283717;0.0-193.0;3038149;05/05/2020 16:59
999;fixation_cross;999;999;fixation;1;5;1;1;2;5;1;9;2;html-keyboard-response;194;284721;0.0-194.0;3038149;05/05/2020 16:59
999;imgJS/WMF_scramble_14.jpg,imgJS/WMF_scramble_18.jpg,imgJS/WMF_scramble_11.jpg,imgJS/WMF_scramble_16.jpg,imgJS/WMF_scramble_11.jpg,imgJS/WMF_24.jpg,imgJS/WMF_scramble_6.jpg,imgJS/WMF_scramble_16.jpg,imgJS/WMF_scramble_26.jpg,imgJS/WFN_42.jpg,imgJS/WMF;999;999;rsvp_img_15;1;5;1;1;2;5;1;9;2;rsvp_flux;195;285775;0.0-195.0;3038149;05/05/2020 16:59
1382.7049999963;"<div style=""font-size:20px;""><p> Avez-vous vu au moins une femme? </p><p> <strong> Oui [O] / Non [N] </strong></p> </div>";999;79;rsvpAnswFem;1;5;1;1;2;5;1;9;2;html-keyboard-response;196;287160;0.0-196.0;3038149;05/05/2020 16:59
999;999;999;999;fullscreenExp;999;999;999;999;999;999;999;999;999;fullscreen;197;287198;0.0-197.0;3038149;05/05/2020 16:59
999;fixation_cross;999;999;fixation;1;6;1;4;2;6;0;8;1;html-keyboard-response;198;288203;0.0-198.0;3038149;05/05/2020 16:59
999;imgJS/WFF_scramble_17.jpg,imgJS/WFF_scramble_10.jpg,imgJS/WFF_scramble_15.jpg,imgJS/WFF_scramble_18.jpg,imgJS/WFF_scramble_8.jpg,imgJS/WFF_scramble_12.jpg,imgJS/WFF_5.jpg,imgJS/WFF_scramble_33.jpg,imgJS/WMF_23.jpg,imgJS/WFF_scramble_11.jpg,imgJS/WFF_;999;999;rsvp_img_15;1;6;1;4;2;6;0;8;1;rsvp_flux;199;289257;0.0-199.0;3038149;05/05/2020 16:59
1702.5300000096;"<div style=""font-size:20px;""><p> Avez-vous vu au moins un homme? </p><p> <strong> Oui [O] / Non [N] </strong></p> </div>";999;79;rsvpAnswHom;1;6;1;4;2;6;0;8;1;html-keyboard-response;200;290962;0.0-200.0;3038149;05/05/2020 16:59
999;999;999;999;fullscreenExp;999;999;999;999;999;999;999;999;999;fullscreen;201;291018;0.0-201.0;3038149;05/05/2020 16:59
999;fixation_cross;999;999;fixation;1;7;1;4;2;5;2;9;3;html-keyboard-response;202;292022;0.0-202.0;3038149;05/05/2020 16:59
999;imgJS/WFN_scramble_29.jpg,imgJS/WFN_scramble_54.jpg,imgJS/WFN_scramble_83.jpg,imgJS/WFN_scramble_39.jpg,imgJS/WFN_scramble_10.jpg,imgJS/WFN_61.jpg,imgJS/WFN_scramble_46.jpg,imgJS/WFN_scramble_61.jpg,imgJS/WFN_scramble_82.jpg,imgJS/WMN_80.jpg,imgJS/WF;999;999;rsvp_img_15;1;7;1;4;2;5;2;9;3;rsvp_flux;203;293076;0.0-203.0;3038149;05/05/2020 16:59
1034.1250000056;"<div style=""font-size:20px;""><p> Avez-vous vu au moins un homme? </p><p> <strong> Oui [O] / Non [N] </strong></p> </div>";999;79;rsvpAnswHom;1;7;1;4;2;5;2;9;3;html-keyboard-response;204;294113;0.0-204.0;3038149;05/05/2020 16:59
999;999;999;999;fullscreenExp;999;999;999;999;999;999;999;999;999;fullscreen;205;294152;0.0-205.0;3038149;05/05/2020 16:59
999;fixation_cross;999;999;fixation;1;8;1;3;2;5;1;7;1;html-keyboard-response;206;295158;0.0-206.0;3038149;05/05/2020 16:59
999;imgJS/WMF_scramble_13.jpg,imgJS/WMF_scramble_17.jpg,imgJS/WMF_scramble_29.jpg,imgJS/WMF_scramble_12.jpg,imgJS/WMF_scramble_7.jpg,imgJS/WMF_18.jpg,imgJS/WMF_scramble_15.jpg,imgJS/WMF_25.jpg,imgJS/WMF_scramble_11.jpg,imgJS/WMF_scramble_23.jpg,imgJS/WMF;999;999;rsvp_img_15;1;8;1;3;2;5;1;7;1;rsvp_flux;207;296213;0.0-207.0;3038149;05/05/2020 16:59
1359.0850000037;"<div style=""font-size:20px;""><p> Avez-vous vu au moins une femme? </p><p> <strong> Oui [O] / Non [N] </strong></p> </div>";999;78;rsvpAnswFem;1;8;1;3;2;5;1;7;1;html-keyboard-response;208;297574;0.0-208.0;3038149;05/05/2020 16:59
999;999;999;999;fullscreenExp;999;999;999;999;999;999;999;999;999;fullscreen;209;297628;0.0-209.0;3038149;05/05/2020 16:59
999;fixation_cross;999;999;fixation;1;9;1;2;2;4;0;8;2;html-keyboard-response;210;298632;0.0-210.0;3038149;05/05/2020 16:59
999;imgJS/WFF_scramble_24.jpg,imgJS/WFF_scramble_12.jpg,imgJS/WFF_scramble_2.jpg,imgJS/WFF_scramble_14.jpg,imgJS/WFF_14.jpg,imgJS/WFF_scramble_27.jpg,imgJS/WFF_scramble_26.jpg,imgJS/WFF_scramble_7.jpg,imgJS/WFN_38.jpg,imgJS/WFF_scramble_27.jpg,imgJS/WFF_;999;999;rsvp_img_15;1;9;1;2;2;4;0;8;2;rsvp_flux;211;299686;0.0-211.0;3038149;05/05/2020 16:59
2094.6900000563;"<div style=""font-size:20px;""><p> Avez-vous vu au moins un homme? </p><p> <strong> Oui [O] / Non [N] </strong></p> </div>";999;78;rsvpAnswHom;1;9;1;2;2;4;0;8;2;html-keyboard-response;212;301783;0.0-212.0;3038149;05/05/2020 16:59
999;999;999;999;fullscreenExp;999;999;999;999;999;999;999;999;999;fullscreen;213;301824;0.0-213.0;3038149;05/05/2020 16:59
999;fixation_cross;999;999;fixation;1;10;1;1;2;5;1;9;2;html-keyboard-response;214;302830;0.0-214.0;3038149;05/05/2020 16:59
999;imgJS/WMF_scramble_5.jpg,imgJS/WMF_scramble_15.jpg,imgJS/WMF_scramble_22.jpg,imgJS/WMF_scramble_5.jpg,imgJS/WMF_scramble_24.jpg,imgJS/WMF_14.jpg,imgJS/WMF_scramble_18.jpg,imgJS/WMF_scramble_4.jpg,imgJS/WMF_scramble_23.jpg,imgJS/WFN_22.jpg,imgJS/WMF_s;999;999;rsvp_img_15;1;10;1;1;2;5;1;9;2;rsvp_flux;215;303883;0.0-215.0;3038149;05/05/2020 16:59
1747.1150000347;"<div style=""font-size:20px;""><p> Avez-vous vu au moins une femme? </p><p> <strong> Oui [O] / Non [N] </strong></p> </div>";999;79;rsvpAnswFem;1;10;1;1;2;5;1;9;2;html-keyboard-response;216;305634;0.0-216.0;3038149;05/05/2020 16:59
999;999;999;999;fullscreenExp;999;999;999;999;999;999;999;999;999;fullscreen;217;305675;0.0-217.0;3038149;05/05/2020 16:59
999;fixation_cross;999;999;fixation;1;11;1;1;2;8;1;12;2;html-keyboard-response;218;306678;0.0-218.0;3038149;05/05/2020 16:59
999;imgJS/WMF_scramble_26.jpg,imgJS/WMF_scramble_28.jpg,imgJS/WMF_scramble_29.jpg,imgJS/WMF_scramble_27.jpg,imgJS/WMF_scramble_25.jpg,imgJS/WMF_scramble_20.jpg,imgJS/WMF_scramble_12.jpg,imgJS/WMF_scramble_13.jpg,imgJS/WMF_6.jpg,imgJS/WMF_scramble_20.jpg,;999;999;rsvp_img_15;1;11;1;1;2;8;1;12;2;rsvp_flux;219;307732;0.0-219.0;3038149;05/05/2020 16:59
872.80499993358;"<div style=""font-size:20px;""><p> Avez-vous vu au moins une femme? </p><p> <strong> Oui [O] / Non [N] </strong></p> </div>";999;79;rsvpAnswFem;1;11;1;1;2;8;1;12;2;html-keyboard-response;220;308608;0.0-220.0;3038149;05/05/2020 16:59
999;999;999;999;fullscreenExp;999;999;999;999;999;999;999;999;999;fullscreen;221;308662;0.0-221.0;3038149;05/05/2020 16:59
999;fixation_cross;999;999;fixation;1;12;1;2;2;8;0;12;3;html-keyboard-response;222;309667;0.0-222.0;3038149;05/05/2020 16:59
999;imgJS/WFF_scramble_20.jpg,imgJS/WFF_scramble_7.jpg,imgJS/WFF_scramble_18.jpg,imgJS/WFF_scramble_24.jpg,imgJS/WFF_scramble_33.jpg,imgJS/WFF_scramble_33.jpg,imgJS/WFF_scramble_12.jpg,imgJS/WFF_scramble_25.jpg,imgJS/WFF_20.jpg,imgJS/WFF_scramble_26.jpg,;999;999;rsvp_img_15;1;12;1;2;2;8;0;12;3;rsvp_flux;223;310721;0.0-223.0;3038149;05/05/2020 16:59
1830.6350000203;"<div style=""font-size:20px;""><p> Avez-vous vu au moins un homme? </p><p> <strong> Oui [O] / Non [N] </strong></p> </div>";999;79;rsvpAnswHom;1;12;1;2;2;8;0;12;3;html-keyboard-response;224;312554;0.0-224.0;3038149;05/05/2020 16:59
999;999;999;999;fullscreenExp;999;999;999;999;999;999;999;999;999;fullscreen;225;312595;0.0-225.0;3038149;05/05/2020 16:59
999;fixation_cross;999;999;fixation;1;13;1;1;2;5;1;7;2;html-keyboard-response;226;313599;0.0-226.0;3038149;05/05/2020 16:59
999;imgJS/WMF_scramble_16.jpg,imgJS/WMF_scramble_28.jpg,imgJS/WMF_scramble_27.jpg,imgJS/WMF_scramble_28.jpg,imgJS/WMF_scramble_18.jpg,imgJS/WMF_7.jpg,imgJS/WMF_scramble_27.jpg,imgJS/WFN_44.jpg,imgJS/WMF_scramble_18.jpg,imgJS/WMF_scramble_10.jpg,imgJS/WMF;999;999;rsvp_img_15;1;13;1;1;2;5;1;7;2;rsvp_flux;227;314653;0.0-227.0;3038149;05/05/2020 16:59
869.91000000853;"<div style=""font-size:20px;""><p> Avez-vous vu au moins une femme? </p><p> <strong> Oui [O] / Non [N] </strong></p> </div>";999;79;rsvpAnswFem;1;13;1;1;2;5;1;7;2;html-keyboard-response;228;315525;0.0-228.0;3038149;05/05/2020 16:59
999;999;999;999;fullscreenExp;999;999;999;999;999;999;999;999;999;fullscreen;229;315564;0.0-229.0;3038149;05/05/2020 16:59
999;fixation_cross;999;999;fixation;1;14;1;1;2;8;1;10;2;html-keyboard-response;230;316569;0.0-230.0;3038149;05/05/2020 16:59
999;imgJS/WMF_scramble_23.jpg,imgJS/WMF_scramble_27.jpg,imgJS/WMF_scramble_24.jpg,imgJS/WMF_scramble_24.jpg,imgJS/WMF_scramble_7.jpg,imgJS/WMF_scramble_15.jpg,imgJS/WMF_scramble_9.jpg,imgJS/WMF_scramble_3.jpg,imgJS/WMF_25.jpg,imgJS/WMF_scramble_10.jpg,im;999;999;rsvp_img_15;1;14;1;1;2;8;1;10;2;rsvp_flux;231;317623;0.0-231.0;3038149;05/05/2020 16:59
771.90000005066;"<div style=""font-size:20px;""><p> Avez-vous vu au moins une femme? </p><p> <strong> Oui [O] / Non [N] </strong></p> </div>";999;79;rsvpAnswFem;1;14;1;1;2;8;1;10;2;html-keyboard-response;232;318398;0.0-232.0;3038149;05/05/2020 16:59
999;999;999;999;fullscreenExp;999;999;999;999;999;999;999;999;999;fullscreen;233;318453;0.0-233.0;3038149;05/05/2020 16:59
999;fixation_cross;999;999;fixation;1;15;1;2;2;4;0;6;3;html-keyboard-response;234;319457;0.0-234.0;3038149;05/05/2020 16:59
999;imgJS/WFF_scramble_11.jpg,imgJS/WFF_scramble_23.jpg,imgJS/WFF_scramble_2.jpg,imgJS/WFF_scramble_10.jpg,imgJS/WFF_25.jpg,imgJS/WFF_scramble_13.jpg,imgJS/WMN_20.jpg,imgJS/WFF_scramble_16.jpg,imgJS/WFF_scramble_32.jpg,imgJS/WFF_scramble_24.jpg,imgJS/WFF;999;999;rsvp_img_15;1;15;1;2;2;4;0;6;3;rsvp_flux;235;320512;0.0-235.0;3038149;05/05/2020 16:59
1243.4950000606;"<div style=""font-size:20px;""><p> Avez-vous vu au moins un homme? </p><p> <strong> Oui [O] / Non [N] </strong></p> </div>";999;78;rsvpAnswHom;1;15;1;2;2;4;0;6;3;html-keyboard-response;236;321759;0.0-236.0;3038149;05/05/2020 16:59
999;999;999;999;fullscreenExp;999;999;999;999;999;999;999;999;999;fullscreen;237;321808;0.0-237.0;3038149;05/05/2020 16:59
999;fixation_cross;999;999;fixation;1;16;1;2;2;4;0;8;2;html-keyboard-response;238;322814;0.0-238.0;3038149;05/05/2020 16:59
999;imgJS/WFF_scramble_22.jpg,imgJS/WFF_scramble_28.jpg,imgJS/WFF_scramble_13.jpg,imgJS/WFF_scramble_28.jpg,imgJS/WFF_11.jpg,imgJS/WFF_scramble_5.jpg,imgJS/WFF_scramble_23.jpg,imgJS/WFF_scramble_34.jpg,imgJS/WFN_38.jpg,imgJS/WFF_scramble_5.jpg,imgJS/WFF_;999;999;rsvp_img_15;1;16;1;2;2;4;0;8;2;rsvp_flux;239;323869;0.0-239.0;3038149;05/05/2020 16:59
2692.4900000449;"<div style=""font-size:20px;""><p> Avez-vous vu au moins un homme? </p><p> <strong> Oui [O] / Non [N] </strong></p> </div>";999;79;rsvpAnswHom;1;16;1;2;2;4;0;8;2;html-keyboard-response;240;326564;0.0-240.0;3038149;05/05/2020 16:59
999;999;999;999;fullscreenExp;999;999;999;999;999;999;999;999;999;fullscreen;241;326604;0.0-241.0;3038149;05/05/2020 16:59
999;fixation_cross;999;999;fixation;1;17;1;3;2;6;1;8;0;html-keyboard-response;242;327609;0.0-242.0;3038149;05/05/2020 16:59
999;imgJS/WMF_scramble_29.jpg,imgJS/WMF_scramble_20.jpg,imgJS/WMF_scramble_23.jpg,imgJS/WMF_scramble_7.jpg,imgJS/WMF_scramble_14.jpg,imgJS/WMF_scramble_29.jpg,imgJS/WMF_28.jpg,imgJS/WMF_scramble_16.jpg,imgJS/WFF_5.jpg,imgJS/WMF_scramble_29.jpg,imgJS/WMF_;999;999;rsvp_img_15;1;17;1;3;2;6;1;8;0;rsvp_flux;243;328664;0.0-243.0;3038149;05/05/2020 16:59
2377.9649999924;"<div style=""font-size:20px;""><p> Avez-vous vu au moins une femme? </p><p> <strong> Oui [O] / Non [N] </strong></p> </div>";999;78;rsvpAnswFem;1;17;1;3;2;6;1;8;0;html-keyboard-response;244;331050;0.0-244.0;3038149;05/05/2020 16:59
999;999;999;999;fullscreenExp;999;999;999;999;999;999;999;999;999;fullscreen;245;331054;0.0-245.0;3038149;05/05/2020 16:59
999;fixation_cross;999;999;fixation;1;18;1;4;2;7;2;9;3;html-keyboard-response;246;332098;0.0-246.0;3038149;05/05/2020 16:59
999;imgJS/WFN_scramble_58.jpg,imgJS/WFN_scramble_5.jpg,imgJS/WFN_scramble_8.jpg,imgJS/WFN_scramble_2.jpg,imgJS/WFN_scramble_63.jpg,imgJS/WFN_scramble_29.jpg,imgJS/WFN_scramble_49.jpg,imgJS/WFN_27.jpg,imgJS/WFN_scramble_44.jpg,imgJS/WMN_84.jpg,imgJS/WFN_s;999;999;rsvp_img_15;1;18;1;4;2;7;2;9;3;rsvp_flux;247;333152;0.0-247.0;3038149;05/05/2020 16:59
1475.7100000279;"<div style=""font-size:20px;""><p> Avez-vous vu au moins un homme? </p><p> <strong> Oui [O] / Non [N] </strong></p> </div>";999;79;rsvpAnswHom;1;18;1;4;2;7;2;9;3;html-keyboard-response;248;334633;0.0-248.0;3038149;05/05/2020 16:59
999;999;999;999;fullscreenExp;999;999;999;999;999;999;999;999;999;fullscreen;249;334671;0.0-249.0;3038149;05/05/2020 16:59
999;fixation_cross;999;999;fixation;1;19;1;1;2;6;1;10;2;html-keyboard-response;250;335676;0.0-250.0;3038149;05/05/2020 16:59
999;imgJS/WMF_scramble_7.jpg,imgJS/WMF_scramble_29.jpg,imgJS/WMF_scramble_19.jpg,imgJS/WMF_scramble_13.jpg,imgJS/WMF_scramble_13.jpg,imgJS/WMF_scramble_24.jpg,imgJS/WMF_8.jpg,imgJS/WMF_scramble_16.jpg,imgJS/WMF_scramble_27.jpg,imgJS/WMF_scramble_10.jpg,i;999;999;rsvp_img_15;1;19;1;1;2;6;1;10;2;rsvp_flux;251;336731;0.0-251.0;3038149;05/05/2020 16:59
1944.7350000264;"<div style=""font-size:20px;""><p> Avez-vous vu au moins une femme? </p><p> <strong> Oui [O] / Non [N] </strong></p> </div>";999;78;rsvpAnswFem;1;19;1;1;2;6;1;10;2;html-keyboard-response;252;338678;0.0-252.0;3038149;05/05/2020 16:59
999;999;999;999;fullscreenExp;999;999;999;999;999;999;999;999;999;fullscreen;253;338719;0.0-253.0;3038149;05/05/2020 16:59
999;fixation_cross;999;999;fixation;1;20;1;1;2;5;1;7;2;html-keyboard-response;254;339723;0.0-254.0;3038149;05/05/2020 16:59
999;imgJS/WMF_scramble_23.jpg,imgJS/WMF_scramble_3.jpg,imgJS/WMF_scramble_18.jpg,imgJS/WMF_scramble_21.jpg,imgJS/WMF_scramble_24.jpg,imgJS/WMF_17.jpg,imgJS/WMF_scramble_5.jpg,imgJS/WFN_16.jpg,imgJS/WMF_scramble_11.jpg,imgJS/WMF_scramble_4.jpg,imgJS/WMF_s;999;999;rsvp_img_15;1;20;1;1;2;5;1;7;2;rsvp_flux;255;340777;0.0-255.0;3038149;05/05/2020 16:59
712.83999993466;"<div style=""font-size:20px;""><p> Avez-vous vu au moins une femme? </p><p> <strong> Oui [O] / Non [N] </strong></p> </div>";999;79;rsvpAnswFem;1;20;1;1;2;5;1;7;2;html-keyboard-response;256;341493;0.0-256.0;3038149;05/05/2020 16:59
999;999;999;999;fullscreenExp;999;999;999;999;999;999;999;999;999;fullscreen;257;341540;0.0-257.0;3038149;05/05/2020 16:59
999;fixation_cross;999;999;fixation;1;21;1;1;2;4;1;8;3;html-keyboard-response;258;342544;0.0-258.0;3038149;05/05/2020 16:59
999;imgJS/WMF_scramble_12.jpg,imgJS/WMF_scramble_25.jpg,imgJS/WMF_scramble_12.jpg,imgJS/WMF_scramble_22.jpg,imgJS/WMF_4.jpg,imgJS/WMF_scramble_8.jpg,imgJS/WMF_scramble_8.jpg,imgJS/WMF_scramble_26.jpg,imgJS/WMN_71.jpg,imgJS/WMF_scramble_9.jpg,imgJS/WMF_sc;999;999;rsvp_img_15;1;21;1;1;2;4;1;8;3;rsvp_flux;259;343598;0.0-259.0;3038149;05/05/2020 16:59
1883.5149999941;"<div style=""font-size:20px;""><p> Avez-vous vu au moins une femme? </p><p> <strong> Oui [O] / Non [N] </strong></p> </div>";999;79;rsvpAnswFem;1;21;1;1;2;4;1;8;3;html-keyboard-response;260;345484;0.0-260.0;3038149;05/05/2020 16:59
999;999;999;999;fullscreenExp;999;999;999;999;999;999;999;999;999;fullscreen;261;345535;0.0-261.0;3038149;05/05/2020 16:59
999;fixation_cross;999;999;fixation;1;22;1;1;2;4;1;6;3;html-keyboard-response;262;346542;0.0-262.0;3038149;05/05/2020 16:59
999;imgJS/WMF_scramble_12.jpg,imgJS/WMF_scramble_26.jpg,imgJS/WMF_scramble_21.jpg,imgJS/WMF_scramble_10.jpg,imgJS/WMF_7.jpg,imgJS/WMF_scramble_8.jpg,imgJS/WMN_9.jpg,imgJS/WMF_scramble_23.jpg,imgJS/WMF_scramble_4.jpg,imgJS/WMF_scramble_22.jpg,imgJS/WMF_sc;999;999;rsvp_img_15;1;22;1;1;2;4;1;6;3;rsvp_flux;263;347596;0.0-263.0;3038149;05/05/2020 16:59
1462.2499999823;"<div style=""font-size:20px;""><p> Avez-vous vu au moins une femme? </p><p> <strong> Oui [O] / Non [N] </strong></p> </div>";999;79;rsvpAnswFem;1;22;1;1;2;4;1;6;3;html-keyboard-response;264;349060;0.0-264.0;3038149;05/05/2020 16:59
999;999;999;999;fullscreenExp;999;999;999;999;999;999;999;999;999;fullscreen;265;349101;0.0-265.0;3038149;05/05/2020 16:59
999;fixation_cross;999;999;fixation;1;23;1;2;2;4;0;8;3;html-keyboard-response;266;350106;0.0-266.0;3038149;05/05/2020 16:59
999;imgJS/WFF_scramble_35.jpg,imgJS/WFF_scramble_35.jpg,imgJS/WFF_scramble_22.jpg,imgJS/WFF_scramble_36.jpg,imgJS/WFF_7.jpg,imgJS/WFF_scramble_14.jpg,imgJS/WFF_scramble_10.jpg,imgJS/WFF_scramble_10.jpg,imgJS/WMN_29.jpg,imgJS/WFF_scramble_29.jpg,imgJS/WFF;999;999;rsvp_img_15;1;23;1;2;2;4;0;8;3;rsvp_flux;267;351162;0.0-267.0;3038149;05/05/2020 16:59
1261.1699999543;"<div style=""font-size:20px;""><p> Avez-vous vu au moins un homme? </p><p> <strong> Oui [O] / Non [N] </strong></p> </div>";999;79;rsvpAnswHom;1;23;1;2;2;4;0;8;3;html-keyboard-response;268;352425;0.0-268.0;3038149;05/05/2020 16:59
999;999;999;999;fullscreenExp;999;999;999;999;999;999;999;999;999;fullscreen;269;352473;0.0-269.0;3038149;05/05/2020 16:59
999;fixation_cross;999;999;fixation;1;24;1;1;2;8;1;10;3;html-keyboard-response;270;353477;0.0-270.0;3038149;05/05/2020 16:59
999;imgJS/WMF_scramble_6.jpg,imgJS/WMF_scramble_10.jpg,imgJS/WMF_scramble_21.jpg,imgJS/WMF_scramble_5.jpg,imgJS/WMF_scramble_15.jpg,imgJS/WMF_scramble_29.jpg,imgJS/WMF_scramble_23.jpg,imgJS/WMF_scramble_7.jpg,imgJS/WMF_13.jpg,imgJS/WMF_scramble_6.jpg,img;999;999;rsvp_img_15;1;24;1;1;2;8;1;10;3;rsvp_flux;271;354555;0.0-271.0;3038149;05/05/2020 16:59
800.15499994624;"<div style=""font-size:20px;""><p> Avez-vous vu au moins une femme? </p><p> <strong> Oui [O] / Non [N] </strong></p> </div>";999;78;rsvpAnswFem;1;24;1;1;2;8;1;10;3;html-keyboard-response;272;355357;0.0-272.0;3038149;05/05/2020 16:59
999;999;999;999;fullscreenExp;999;999;999;999;999;999;999;999;999;fullscreen;273;355410;0.0-273.0;3038149;05/05/2020 16:59
999;fixation_cross;999;999;fixation;1;25;1;3;2;5;3;9;2;html-keyboard-response;274;356415;0.0-274.0;3038149;05/05/2020 16:59
999;imgJS/WMN_scramble_19.jpg,imgJS/WMN_scramble_83.jpg,imgJS/WMN_scramble_71.jpg,imgJS/WMN_scramble_60.jpg,imgJS/WMN_scramble_90.jpg,imgJS/WMN_90.jpg,imgJS/WMN_scramble_19.jpg,imgJS/WMN_scramble_82.jpg,imgJS/WMN_scramble_57.jpg,imgJS/WFN_63.jpg,imgJS/WM;999;999;rsvp_img_15;1;25;1;3;2;5;3;9;2;rsvp_flux;275;357469;0.0-275.0;3038149;05/05/2020 16:59
1138.7849999592;"<div style=""font-size:20px;""><p> Avez-vous vu au moins une femme? </p><p> <strong> Oui [O] / Non [N] </strong></p> </div>";999;79;rsvpAnswFem;1;25;1;3;2;5;3;9;2;html-keyboard-response;276;358611;0.0-276.0;3038149;05/05/2020 16:59
999;999;999;999;fullscreenExp;999;999;999;999;999;999;999;999;999;fullscreen;277;358655;0.0-277.0;3038149;05/05/2020 16:59
999;fixation_cross;999;999;fixation;1;26;1;2;2;7;0;9;2;html-keyboard-response;278;359659;0.0-278.0;3038149;05/05/2020 16:59
999;imgJS/WFF_scramble_32.jpg,imgJS/WFF_scramble_19.jpg,imgJS/WFF_scramble_1.jpg,imgJS/WFF_scramble_35.jpg,imgJS/WFF_scramble_21.jpg,imgJS/WFF_scramble_33.jpg,imgJS/WFF_scramble_16.jpg,imgJS/WFF_3.jpg,imgJS/WFF_scramble_30.jpg,imgJS/WFN_44.jpg,imgJS/WFF_;999;999;rsvp_img_15;1;26;1;2;2;7;0;9;2;rsvp_flux;279;360713;0.0-279.0;3038149;05/05/2020 16:59
2686.8600000162;"<div style=""font-size:20px;""><p> Avez-vous vu au moins un homme? </p><p> <strong> Oui [O] / Non [N] </strong></p> </div>";999;78;rsvpAnswHom;1;26;1;2;2;7;0;9;2;html-keyboard-response;280;363403;0.0-280.0;3038149;05/05/2020 16:59
999;999;999;999;fullscreenExp;999;999;999;999;999;999;999;999;999;fullscreen;281;363446;0.0-281.0;3038149;05/05/2020 16:59
999;fixation_cross;999;999;fixation;1;27;1;2;2;4;0;8;2;html-keyboard-response;282;364450;0.0-282.0;3038149;05/05/2020 16:59
999;imgJS/WFF_scramble_27.jpg,imgJS/WFF_scramble_5.jpg,imgJS/WFF_scramble_1.jpg,imgJS/WFF_scramble_2.jpg,imgJS/WFF_27.jpg,imgJS/WFF_scramble_25.jpg,imgJS/WFF_scramble_29.jpg,imgJS/WFF_scramble_16.jpg,imgJS/WFN_52.jpg,imgJS/WFF_scramble_26.jpg,imgJS/WFF_s;999;999;rsvp_img_15;1;27;1;2;2;4;0;8;2;rsvp_flux;283;365504;0.0-283.0;3038149;05/05/2020 16:59
1020.0099999784;"<div style=""font-size:20px;""><p> Avez-vous vu au moins un homme? </p><p> <strong> Oui [O] / Non [N] </strong></p> </div>";999;78;rsvpAnswHom;1;27;1;2;2;4;0;8;2;html-keyboard-response;284;366526;0.0-284.0;3038149;05/05/2020 16:59
999;999;999;999;fullscreenExp;999;999;999;999;999;999;999;999;999;fullscreen;285;366566;0.0-285.0;3038149;05/05/2020 16:59
999;fixation_cross;999;999;fixation;1;28;1;4;2;4;2;6;3;html-keyboard-response;286;367571;0.0-286.0;3038149;05/05/2020 16:59
999;imgJS/WFN_scramble_36.jpg,imgJS/WFN_scramble_71.jpg,imgJS/WFN_scramble_60.jpg,imgJS/WFN_scramble_25.jpg,imgJS/WFN_5.jpg,imgJS/WFN_scramble_86.jpg,imgJS/WMN_19.jpg,imgJS/WFN_scramble_46.jpg,imgJS/WFN_scramble_56.jpg,imgJS/WFN_scramble_26.jpg,imgJS/WFN;999;999;rsvp_img_15;1;28;1;4;2;4;2;6;3;rsvp_flux;287;368626;0.0-287.0;3038149;05/05/2020 16:59
582.56000000983;"<div style=""font-size:20px;""><p> Avez-vous vu au moins un homme? </p><p> <strong> Oui [O] / Non [N] </strong></p> </div>";999;79;rsvpAnswHom;1;28;1;4;2;4;2;6;3;html-keyboard-response;288;369212;0.0-288.0;3038149;05/05/2020 16:59
999;999;999;999;fullscreenExp;999;999;999;999;999;999;999;999;999;fullscreen;289;369252;0.0-289.0;3038149;05/05/2020 16:59
999;fixation_cross;999;999;fixation;1;29;1;2;2;5;0;7;2;html-keyboard-response;290;370256;0.0-290.0;3038149;05/05/2020 16:59
999;imgJS/WFF_scramble_18.jpg,imgJS/WFF_scramble_24.jpg,imgJS/WFF_scramble_10.jpg,imgJS/WFF_scramble_25.jpg,imgJS/WFF_scramble_4.jpg,imgJS/WFF_31.jpg,imgJS/WFF_scramble_15.jpg,imgJS/WFN_59.jpg,imgJS/WFF_scramble_30.jpg,imgJS/WFF_scramble_24.jpg,imgJS/WFF;999;999;rsvp_img_15;1;29;1;2;2;5;0;7;2;rsvp_flux;291;371310;0.0-291.0;3038149;05/05/2020 16:59
1678.1399999745;"<div style=""font-size:20px;""><p> Avez-vous vu au moins un homme? </p><p> <strong> Oui [O] / Non [N] </strong></p> </div>";999;78;rsvpAnswHom;1;29;1;2;2;5;0;7;2;html-keyboard-response;292;372991;0.0-292.0;3038149;05/05/2020 16:59
999;999;999;999;fullscreenExp;999;999;999;999;999;999;999;999;999;fullscreen;293;373039;0.0-293.0;3038149;05/05/2020 16:59
999;instructions/instructionsDiapo/Slide6.jpg;999;999;instrCondi;2;999;NULL;NULL;1;999;999;999;999;image-keyboard-response;294;377102;0.0-294.0;3038149;05/05/2020 16:59
999;fixation_cross;999;999;fixation;2;0;2;5;1;4;3;8;0;html-keyboard-response;295;378106;0.0-295.0;3038149;05/05/2020 16:59
999;imgJS/WMN_scramble_78.jpg,imgJS/WMN_scramble_21.jpg,imgJS/WMN_scramble_12.jpg,imgJS/WMN_scramble_72.jpg,imgJS/WMN_65.jpg,imgJS/WMN_scramble_20.jpg,imgJS/WMN_scramble_11.jpg,imgJS/WMN_scramble_4.jpg,imgJS/WFF_3.jpg,imgJS/WMN_scramble_87.jpg,imgJS/WMN_;999;999;rsvp_img_15;2;0;2;5;1;4;3;8;0;rsvp_flux;296;379161;0.0-296.0;3038149;05/05/2020 16:59
1055.2700000117;"<div style=""font-size:20px;""><p> Avez-vous vu au moins une femme? </p><p> <strong> Oui [O] / Non [N] </strong></p> </div>";999;79;rsvpAnswFem;2;0;2;5;1;4;3;8;0;html-keyboard-response;297;380219;0.0-297.0;3038149;05/05/2020 16:59
999;999;999;999;fullscreenExp;999;999;999;999;999;999;999;999;999;fullscreen;298;380262;0.0-298.0;3038149;05/05/2020 16:59
999;fixation_cross;999;999;fixation;2;1;2;3;1;8;3;12;3;html-keyboard-response;299;381267;0.0-299.0;3038149;05/05/2020 16:59
999;imgJS/WMN_scramble_35.jpg,imgJS/WMN_scramble_78.jpg,imgJS/WMN_scramble_35.jpg,imgJS/WMN_scramble_39.jpg,imgJS/WMN_scramble_84.jpg,imgJS/WMN_scramble_67.jpg,imgJS/WMN_scramble_2.jpg,imgJS/WMN_scramble_45.jpg,imgJS/WMN_1.jpg,imgJS/WMN_scramble_76.jpg,i;999;999;rsvp_img_15;2;1;2;3;1;8;3;12;3;rsvp_flux;300;382324;0.0-300.0;3038149;05/05/2020 16:59
630.87499991525;"<div style=""font-size:20px;""><p> Avez-vous vu au moins une femme? </p><p> <strong> Oui [O] / Non [N] </strong></p> </div>";999;78;rsvpAnswFem;2;1;2;3;1;8;3;12;3;html-keyboard-response;301;382957;0.0-301.0;3038149;05/05/2020 16:59
999;999;999;999;fullscreenExp;999;999;999;999;999;999;999;999;999;fullscreen;302;383014;0.0-302.0;3038149;05/05/2020 16:59
999;fixation_cross;999;999;fixation;2;2;2;5;1;6;3;10;0;html-keyboard-response;303;384019;0.0-303.0;3038149;05/05/2020 16:59
999;imgJS/WMN_scramble_86.jpg,imgJS/WMN_scramble_41.jpg,imgJS/WMN_scramble_17.jpg,imgJS/WMN_scramble_36.jpg,imgJS/WMN_scramble_55.jpg,imgJS/WMN_scramble_55.jpg,imgJS/WMN_3.jpg,imgJS/WMN_scramble_38.jpg,imgJS/WMN_scramble_30.jpg,imgJS/WMN_scramble_8.jpg,i;999;999;rsvp_img_15;2;2;2;5;1;6;3;10;0;rsvp_flux;304;385073;0.0-304.0;3038149;05/05/2020 16:59
700.01999998931;"<div style=""font-size:20px;""><p> Avez-vous vu au moins une femme? </p><p> <strong> Oui [O] / Non [N] </strong></p> </div>";999;79;rsvpAnswFem;2;2;2;5;1;6;3;10;0;html-keyboard-response;305;385776;0.0-305.0;3038149;05/05/2020 16:59
999;999;999;999;fullscreenExp;999;999;999;999;999;999;999;999;999;fullscreen;306;385816;0.0-306.0;3038149;05/05/2020 16:59
999;fixation_cross;999;999;fixation;2;3;2;4;1;5;2;7;3;html-keyboard-response;307;386821;0.0-307.0;3038149;05/05/2020 16:59
999;imgJS/WFN_scramble_42.jpg,imgJS/WFN_scramble_76.jpg,imgJS/WFN_scramble_69.jpg,imgJS/WFN_scramble_7.jpg,imgJS/WFN_scramble_26.jpg,imgJS/WFN_43.jpg,imgJS/WFN_scramble_73.jpg,imgJS/WMN_89.jpg,imgJS/WFN_scramble_33.jpg,imgJS/WFN_scramble_81.jpg,imgJS/WFN;999;999;rsvp_img_15;2;3;2;4;1;5;2;7;3;rsvp_flux;308;387875;0.0-308.0;3038149;05/05/2020 16:59
1691.4050000487;"<div style=""font-size:20px;""><p> Avez-vous vu au moins un homme? </p><p> <strong> Oui [O] / Non [N] </strong></p> </div>";999;79;rsvpAnswHom;2;3;2;4;1;5;2;7;3;html-keyboard-response;309;389569;0.0-309.0;3038149;05/05/2020 16:59
999;999;999;999;fullscreenExp;999;999;999;999;999;999;999;999;999;fullscreen;310;389616;0.0-310.0;3038149;05/05/2020 16:59
999;fixation_cross;999;999;fixation;2;4;2;6;1;7;2;9;0;html-keyboard-response;311;390620;0.0-311.0;3038149;05/05/2020 16:59
999;imgJS/WFN_scramble_15.jpg,imgJS/WFN_scramble_18.jpg,imgJS/WFN_scramble_76.jpg,imgJS/WFN_scramble_28.jpg,imgJS/WFN_scramble_48.jpg,imgJS/WFN_scramble_41.jpg,imgJS/WFN_scramble_70.jpg,imgJS/WFN_45.jpg,imgJS/WFN_scramble_42.jpg,imgJS/WFF_24.jpg,imgJS/WF;999;999;rsvp_img_15;2;4;2;6;1;7;2;9;0;rsvp_flux;312;391675;0.0-312.0;3038149;05/05/2020 16:59
988.07500000112;"<div style=""font-size:20px;""><p> Avez-vous vu au moins un homme? </p><p> <strong> Oui [O] / Non [N] </strong></p> </div>";999;78;rsvpAnswHom;2;4;2;6;1;7;2;9;0;html-keyboard-response;313;392666;0.0-313.0;3038149;05/05/2020 16:59
999;999;999;999;fullscreenExp;999;999;999;999;999;999;999;999;999;fullscreen;314;392705;0.0-314.0;3038149;05/05/2020 16:59
999;fixation_cross;999;999;fixation;2;5;2;4;1;6;0;8;1;html-keyboard-response;315;393709;0.0-315.0;3038149;05/05/2020 16:59
999;imgJS/WFF_scramble_11.jpg,imgJS/WFF_scramble_31.jpg,imgJS/WFF_scramble_22.jpg,imgJS/WFF_scramble_11.jpg,imgJS/WFF_scramble_23.jpg,imgJS/WFF_scramble_33.jpg,imgJS/WFF_27.jpg,imgJS/WFF_scramble_2.jpg,imgJS/WMF_14.jpg,imgJS/WFF_scramble_35.jpg,imgJS/WFF;999;999;rsvp_img_15;2;5;2;4;1;6;0;8;1;rsvp_flux;316;394763;0.0-316.0;3038149;05/05/2020 16:59
1122.3199999658;"<div style=""font-size:20px;""><p> Avez-vous vu au moins un homme? </p><p> <strong> Oui [O] / Non [N] </strong></p> </div>";999;79;rsvpAnswHom;2;5;2;4;1;6;0;8;1;html-keyboard-response;317;395888;0.0-317.0;3038149;05/05/2020 16:59
999;999;999;999;fullscreenExp;999;999;999;999;999;999;999;999;999;fullscreen;318;395931;0.0-318.0;3038149;05/05/2020 16:59
999;fixation_cross;999;999;fixation;2;6;2;6;1;5;2;7;1;html-keyboard-response;319;396935;0.0-319.0;3038149;05/05/2020 16:59
999;imgJS/WFN_scramble_55.jpg,imgJS/WFN_scramble_25.jpg,imgJS/WFN_scramble_46.jpg,imgJS/WFN_scramble_59.jpg,imgJS/WFN_scramble_77.jpg,imgJS/WFN_4.jpg,imgJS/WFN_scramble_86.jpg,imgJS/WMF_17.jpg,imgJS/WFN_scramble_78.jpg,imgJS/WFN_scramble_28.jpg,imgJS/WFN;999;999;rsvp_img_15;2;6;2;6;1;5;2;7;1;rsvp_flux;320;397988;0.0-320.0;3038149;05/05/2020 16:59
9616.3599999854;"<div style=""font-size:20px;""><p> Avez-vous vu au moins un homme? </p><p> <strong> Oui [O] / Non [N] </strong></p> </div>";999;79;rsvpAnswHom;2;6;2;6;1;5;2;7;1;html-keyboard-response;321;407609;0.0-321.0;3038149;05/05/2020 16:59
999;999;999;999;fullscreenExp;999;999;999;999;999;999;999;999;999;fullscreen;322;407648;0.0-322.0;3038149;05/05/2020 16:59
999;fixation_cross;999;999;fixation;2;7;2;3;1;8;1;10;1;html-keyboard-response;323;408653;0.0-323.0;3038149;05/05/2020 16:59
999;imgJS/WMF_scramble_22.jpg,imgJS/WMF_scramble_14.jpg,imgJS/WMF_scramble_8.jpg,imgJS/WMF_scramble_22.jpg,imgJS/WMF_scramble_16.jpg,imgJS/WMF_scramble_12.jpg,imgJS/WMF_scramble_6.jpg,imgJS/WMF_scramble_20.jpg,imgJS/WMF_10.jpg,imgJS/WMF_scramble_5.jpg,im;999;999;rsvp_img_15;2;7;2;3;1;8;1;10;1;rsvp_flux;324;409708;0.0-324.0;3038149;05/05/2020 16:59
2348.3649999835;"<div style=""font-size:20px;""><p> Avez-vous vu au moins une femme? </p><p> <strong> Oui [O] / Non [N] </strong></p> </div>";999;78;rsvpAnswFem;2;7;2;3;1;8;1;10;1;html-keyboard-response;325;412059;0.0-325.0;3038149;05/05/2020 16:59
999;999;999;999;fullscreenExp;999;999;999;999;999;999;999;999;999;fullscreen;326;412102;0.0-326.0;3038149;05/05/2020 16:59
999;fixation_cross;999;999;fixation;2;8;2;3;1;5;3;7;3;html-keyboard-response;327;413107;0.0-327.0;3038149;05/05/2020 16:59
999;imgJS/WMN_scramble_8.jpg,imgJS/WMN_scramble_34.jpg,imgJS/WMN_scramble_32.jpg,imgJS/WMN_scramble_85.jpg,imgJS/WMN_scramble_23.jpg,imgJS/WMN_30.jpg,imgJS/WMN_scramble_80.jpg,imgJS/WMN_31.jpg,imgJS/WMN_scramble_1.jpg,imgJS/WMN_scramble_73.jpg,imgJS/WMN_;999;999;rsvp_img_15;2;8;2;3;1;5;3;7;3;rsvp_flux;328;414161;0.0-328.0;3038149;05/05/2020 16:59
978.45000005327;"<div style=""font-size:20px;""><p> Avez-vous vu au moins une femme? </p><p> <strong> Oui [O] / Non [N] </strong></p> </div>";999;78;rsvpAnswFem;2;8;2;3;1;5;3;7;3;html-keyboard-response;329;415143;0.0-329.0;3038149;05/05/2020 16:59
999;999;999;999;fullscreenExp;999;999;999;999;999;999;999;999;999;fullscreen;330;415185;0.0-330.0;3038149;05/05/2020 16:59
999;fixation_cross;999;999;fixation;2;9;2;5;1;6;3;10;1;html-keyboard-response;331;416189;0.0-331.0;3038149;05/05/2020 16:59
999;imgJS/WMN_scramble_4.jpg,imgJS/WMN_scramble_76.jpg,imgJS/WMN_scramble_84.jpg,imgJS/WMN_scramble_83.jpg,imgJS/WMN_scramble_58.jpg,imgJS/WMN_scramble_45.jpg,imgJS/WMN_76.jpg,imgJS/WMN_scramble_53.jpg,imgJS/WMN_scramble_88.jpg,imgJS/WMN_scramble_81.jpg,;999;999;rsvp_img_15;2;9;2;5;1;6;3;10;1;rsvp_flux;332;417243;0.0-332.0;3038149;05/05/2020 16:59
1808.9400000172;"<div style=""font-size:20px;""><p> Avez-vous vu au moins une femme? </p><p> <strong> Oui [O] / Non [N] </strong></p> </div>";999;78;rsvpAnswFem;2;9;2;5;1;6;3;10;1;html-keyboard-response;333;419055;0.0-333.0;3038149;05/05/2020 16:59
999;999;999;999;fullscreenExp;999;999;999;999;999;999;999;999;999;fullscreen;334;419095;0.0-334.0;3038149;05/05/2020 16:59
999;fixation_cross;999;999;fixation;2;10;2;6;1;7;2;9;0;html-keyboard-response;335;420099;0.0-335.0;3038149;05/05/2020 16:59
999;imgJS/WFN_scramble_7.jpg,imgJS/WFN_scramble_31.jpg,imgJS/WFN_scramble_65.jpg,imgJS/WFN_scramble_68.jpg,imgJS/WFN_scramble_23.jpg,imgJS/WFN_scramble_61.jpg,imgJS/WFN_scramble_59.jpg,imgJS/WFN_12.jpg,imgJS/WFN_scramble_11.jpg,imgJS/WFF_2.jpg,imgJS/WFN_;999;999;rsvp_img_15;2;10;2;6;1;7;2;9;0;rsvp_flux;336;421153;0.0-336.0;3038149;05/05/2020 16:59
1926.8550000852;"<div style=""font-size:20px;""><p> Avez-vous vu au moins un homme? </p><p> <strong> Oui [O] / Non [N] </strong></p> </div>";999;79;rsvpAnswHom;2;10;2;6;1;7;2;9;0;html-keyboard-response;337;423083;0.0-337.0;3038149;05/05/2020 16:59
999;999;999;999;fullscreenExp;999;999;999;999;999;999;999;999;999;fullscreen;338;423127;0.0-338.0;3038149;05/05/2020 16:59
999;fixation_cross;999;999;fixation;2;11;2;4;1;6;2;10;2;html-keyboard-response;339;424131;0.0-339.0;3038149;05/05/2020 16:59
999;imgJS/WFN_scramble_73.jpg,imgJS/WFN_scramble_25.jpg,imgJS/WFN_scramble_61.jpg,imgJS/WFN_scramble_47.jpg,imgJS/WFN_scramble_18.jpg,imgJS/WFN_scramble_47.jpg,imgJS/WFN_8.jpg,imgJS/WFN_scramble_78.jpg,imgJS/WFN_scramble_35.jpg,imgJS/WFN_scramble_82.jpg,;999;999;rsvp_img_15;2;11;2;4;1;6;2;10;2;rsvp_flux;340;425186;0.0-340.0;3038149;05/05/2020 16:59
3175.7150000194;"<div style=""font-size:20px;""><p> Avez-vous vu au moins un homme? </p><p> <strong> Oui [O] / Non [N] </strong></p> </div>";999;79;rsvpAnswHom;2;11;2;4;1;6;2;10;2;html-keyboard-response;341;428365;0.0-341.0;3038149;05/05/2020 16:59
999;999;999;999;fullscreenExp;999;999;999;999;999;999;999;999;999;fullscreen;342;428408;0.0-342.0;3038149;05/05/2020 16:59
999;fixation_cross;999;999;fixation;2;12;2;3;1;4;3;6;3;html-keyboard-response;343;429414;0.0-343.0;3038149;05/05/2020 16:59
999;imgJS/WMN_scramble_55.jpg,imgJS/WMN_scramble_70.jpg,imgJS/WMN_scramble_28.jpg,imgJS/WMN_scramble_60.jpg,imgJS/WMN_86.jpg,imgJS/WMN_scramble_55.jpg,imgJS/WMN_66.jpg,imgJS/WMN_scramble_63.jpg,imgJS/WMN_scramble_51.jpg,imgJS/WMN_scramble_83.jpg,imgJS/WM;999;999;rsvp_img_15;2;12;2;3;1;4;3;6;3;rsvp_flux;344;430468;0.0-344.0;3038149;05/05/2020 16:59
1102.0749999443;"<div style=""font-size:20px;""><p> Avez-vous vu au moins une femme? </p><p> <strong> Oui [O] / Non [N] </strong></p> </div>";999;78;rsvpAnswFem;2;12;2;3;1;4;3;6;3;html-keyboard-response;345;431572;0.0-345.0;3038149;05/05/2020 16:59
999;999;999;999;fullscreenExp;999;999;999;999;999;999;999;999;999;fullscreen;346;431612;0.0-346.0;3038149;05/05/2020 16:59
999;fixation_cross;999;999;fixation;2;13;2;5;1;5;3;9;0;html-keyboard-response;347;432616;0.0-347.0;3038149;05/05/2020 16:59
999;imgJS/WMN_scramble_62.jpg,imgJS/WMN_scramble_50.jpg,imgJS/WMN_scramble_65.jpg,imgJS/WMN_scramble_59.jpg,imgJS/WMN_scramble_50.jpg,imgJS/WMN_23.jpg,imgJS/WMN_scramble_89.jpg,imgJS/WMN_scramble_14.jpg,imgJS/WMN_scramble_80.jpg,imgJS/WFF_18.jpg,imgJS/WM;999;999;rsvp_img_15;2;13;2;5;1;5;3;9;0;rsvp_flux;348;433669;0.0-348.0;3038149;05/05/2020 16:59
953.57999997213;"<div style=""font-size:20px;""><p> Avez-vous vu au moins une femme? </p><p> <strong> Oui [O] / Non [N] </strong></p> </div>";999;78;rsvpAnswFem;2;13;2;5;1;5;3;9;0;html-keyboard-response;349;434626;0.0-349.0;3038149;05/05/2020 16:59
999;999;999;999;fullscreenExp;999;999;999;999;999;999;999;999;999;fullscreen;350;434668;0.0-350.0;3038149;05/05/2020 16:59
999;fixation_cross;999;999;fixation;2;14;2;5;1;6;3;10;0;html-keyboard-response;351;435672;0.0-351.0;3038149;05/05/2020 16:59
999;imgJS/WMN_scramble_45.jpg,imgJS/WMN_scramble_19.jpg,imgJS/WMN_scramble_12.jpg,imgJS/WMN_scramble_41.jpg,imgJS/WMN_scramble_67.jpg,imgJS/WMN_scramble_4.jpg,imgJS/WMN_32.jpg,imgJS/WMN_scramble_18.jpg,imgJS/WMN_scramble_71.jpg,imgJS/WMN_scramble_16.jpg,;999;999;rsvp_img_15;2;14;2;5;1;6;3;10;0;rsvp_flux;352;436725;0.0-352.0;3038149;05/05/2020 16:59
795.21999997087;"<div style=""font-size:20px;""><p> Avez-vous vu au moins une femme? </p><p> <strong> Oui [O] / Non [N] </strong></p> </div>";999;79;rsvpAnswFem;2;14;2;5;1;6;3;10;0;html-keyboard-response;353;437523;0.0-353.0;3038149;05/05/2020 16:59
999;999;999;999;fullscreenExp;999;999;999;999;999;999;999;999;999;fullscreen;354;437571;0.0-354.0;3038149;05/05/2020 16:59
999;fixation_cross;999;999;fixation;2;15;2;5;1;8;3;12;1;html-keyboard-response;355;438575;0.0-355.0;3038149;05/05/2020 16:59
999;imgJS/WMN_scramble_9.jpg,imgJS/WMN_scramble_75.jpg,imgJS/WMN_scramble_54.jpg,imgJS/WMN_scramble_53.jpg,imgJS/WMN_scramble_7.jpg,imgJS/WMN_scramble_6.jpg,imgJS/WMN_scramble_27.jpg,imgJS/WMN_scramble_18.jpg,imgJS/WMN_84.jpg,imgJS/WMN_scramble_88.jpg,im;999;999;rsvp_img_15;2;15;2;5;1;8;3;12;1;rsvp_flux;356;439629;0.0-356.0;3038149;05/05/2020 16:59
1568.4950000141;"<div style=""font-size:20px;""><p> Avez-vous vu au moins une femme? </p><p> <strong> Oui [O] / Non [N] </strong></p> </div>";999;78;rsvpAnswFem;2;15;2;5;1;8;3;12;1;html-keyboard-response;357;441202;0.0-357.0;3038149;05/05/2020 16:59
999;999;999;999;fullscreenExp;999;999;999;999;999;999;999;999;999;fullscreen;358;441242;0.0-358.0;3038149;05/05/2020 16:59
999;fixation_cross;999;999;fixation;2;16;2;6;1;4;2;6;0;html-keyboard-response;359;442246;0.0-359.0;3038149;05/05/2020 16:59
999;imgJS/WFN_scramble_3.jpg,imgJS/WFN_scramble_18.jpg,imgJS/WFN_scramble_2.jpg,imgJS/WFN_scramble_36.jpg,imgJS/WFN_21.jpg,imgJS/WFN_scramble_34.jpg,imgJS/WFF_17.jpg,imgJS/WFN_scramble_35.jpg,imgJS/WFN_scramble_79.jpg,imgJS/WFN_scramble_66.jpg,imgJS/WFN_;999;999;rsvp_img_15;2;16;2;6;1;4;2;6;0;rsvp_flux;360;443300;0.0-360.0;3038149;05/05/2020 16:59
2155.9350000462;"<div style=""font-size:20px;""><p> Avez-vous vu au moins un homme? </p><p> <strong> Oui [O] / Non [N] </strong></p> </div>";999;78;rsvpAnswHom;2;16;2;6;1;4;2;6;0;html-keyboard-response;361;445459;0.0-361.0;3038149;05/05/2020 16:59
999;999;999;999;fullscreenExp;999;999;999;999;999;999;999;999;999;fullscreen;362;445507;0.0-362.0;3038149;05/05/2020 16:59
999;fixation_cross;999;999;fixation;2;17;2;3;1;7;1;9;1;html-keyboard-response;363;446511;0.0-363.0;3038149;05/05/2020 16:59
999;imgJS/WMF_scramble_12.jpg,imgJS/WMF_scramble_15.jpg,imgJS/WMF_scramble_27.jpg,imgJS/WMF_scramble_21.jpg,imgJS/WMF_scramble_27.jpg,imgJS/WMF_scramble_12.jpg,imgJS/WMF_scramble_2.jpg,imgJS/WMF_7.jpg,imgJS/WMF_scramble_25.jpg,imgJS/WMF_20.jpg,imgJS/WMF_;999;999;rsvp_img_15;2;17;2;3;1;7;1;9;1;rsvp_flux;364;447566;0.0-364.0;3038149;05/05/2020 16:59
1551.4449999901;"<div style=""font-size:20px;""><p> Avez-vous vu au moins une femme? </p><p> <strong> Oui [O] / Non [N] </strong></p> </div>";999;78;rsvpAnswFem;2;17;2;3;1;7;1;9;1;html-keyboard-response;365;449120;0.0-365.0;3038149;05/05/2020 16:59
999;999;999;999;fullscreenExp;999;999;999;999;999;999;999;999;999;fullscreen;366;449161;0.0-366.0;3038149;05/05/2020 16:59
999;fixation_cross;999;999;fixation;2;18;2;6;1;4;2;6;0;html-keyboard-response;367;450166;0.0-367.0;3038149;05/05/2020 16:59
999;imgJS/WFN_scramble_71.jpg,imgJS/WFN_scramble_1.jpg,imgJS/WFN_scramble_1.jpg,imgJS/WFN_scramble_79.jpg,imgJS/WFN_46.jpg,imgJS/WFN_scramble_70.jpg,imgJS/WFF_13.jpg,imgJS/WFN_scramble_28.jpg,imgJS/WFN_scramble_62.jpg,imgJS/WFN_scramble_81.jpg,imgJS/WFN_;999;999;rsvp_img_15;2;18;2;6;1;4;2;6;0;rsvp_flux;368;451219;0.0-368.0;3038149;05/05/2020 16:59
4927.314999979;"<div style=""font-size:20px;""><p> Avez-vous vu au moins un homme? </p><p> <strong> Oui [O] / Non [N] </strong></p> </div>";999;78;rsvpAnswHom;2;18;2;6;1;4;2;6;0;html-keyboard-response;369;456149;0.0-369.0;3038149;05/05/2020 16:59
999;999;999;999;fullscreenExp;999;999;999;999;999;999;999;999;999;fullscreen;370;456190;0.0-370.0;3038149;05/05/2020 16:59
999;fixation_cross;999;999;fixation;2;19;2;5;1;8;3;10;0;html-keyboard-response;371;457195;0.0-371.0;3038149;05/05/2020 16:59
999;imgJS/WMN_scramble_13.jpg,imgJS/WMN_scramble_16.jpg,imgJS/WMN_scramble_19.jpg,imgJS/WMN_scramble_57.jpg,imgJS/WMN_scramble_7.jpg,imgJS/WMN_scramble_80.jpg,imgJS/WMN_scramble_77.jpg,imgJS/WMN_scramble_45.jpg,imgJS/WMN_74.jpg,imgJS/WMN_scramble_82.jpg,;999;999;rsvp_img_15;2;19;2;5;1;8;3;10;0;rsvp_flux;372;458249;0.0-372.0;3038149;05/05/2020 16:59
1498.5200000228;"<div style=""font-size:20px;""><p> Avez-vous vu au moins une femme? </p><p> <strong> Oui [O] / Non [N] </strong></p> </div>";999;79;rsvpAnswFem;2;19;2;5;1;8;3;10;0;html-keyboard-response;373;459751;0.0-373.0;3038149;05/05/2020 16:59
999;999;999;999;fullscreenExp;999;999;999;999;999;999;999;999;999;fullscreen;374;459799;0.0-374.0;3038149;05/05/2020 16:59
999;fixation_cross;999;999;fixation;2;20;2;4;1;6;2;8;3;html-keyboard-response;375;460805;0.0-375.0;3038149;05/05/2020 16:59
999;imgJS/WFN_scramble_52.jpg,imgJS/WFN_scramble_14.jpg,imgJS/WFN_scramble_80.jpg,imgJS/WFN_scramble_48.jpg,imgJS/WFN_scramble_9.jpg,imgJS/WFN_scramble_28.jpg,imgJS/WFN_71.jpg,imgJS/WFN_scramble_26.jpg,imgJS/WMN_42.jpg,imgJS/WFN_scramble_70.jpg,imgJS/WFN;999;999;rsvp_img_15;2;20;2;4;1;6;2;8;3;rsvp_flux;376;461860;0.0-376.0;3038149;05/05/2020 16:59
1213.9949999982;"<div style=""font-size:20px;""><p> Avez-vous vu au moins un homme? </p><p> <strong> Oui [O] / Non [N] </strong></p> </div>";999;79;rsvpAnswHom;2;20;2;4;1;6;2;8;3;html-keyboard-response;377;463077;0.0-377.0;3038149;05/05/2020 16:59
999;999;999;999;fullscreenExp;999;999;999;999;999;999;999;999;999;fullscreen;378;463118;0.0-378.0;3038149;05/05/2020 16:59
999;fixation_cross;999;999;fixation;2;21;2;6;1;7;2;9;0;html-keyboard-response;379;464123;0.0-379.0;3038149;05/05/2020 16:59
999;imgJS/WFN_scramble_12.jpg,imgJS/WFN_scramble_54.jpg,imgJS/WFN_scramble_10.jpg,imgJS/WFN_scramble_79.jpg,imgJS/WFN_scramble_32.jpg,imgJS/WFN_scramble_74.jpg,imgJS/WFN_scramble_34.jpg,imgJS/WFN_22.jpg,imgJS/WFN_scramble_40.jpg,imgJS/WFF_20.jpg,imgJS/WF;999;999;rsvp_img_15;2;21;2;6;1;7;2;9;0;rsvp_flux;380;465177;0.0-380.0;3038149;05/05/2020 16:59
1076.1700000148;"<div style=""font-size:20px;""><p> Avez-vous vu au moins un homme? </p><p> <strong> Oui [O] / Non [N] </strong></p> </div>";999;78;rsvpAnswHom;2;21;2;6;1;7;2;9;0;html-keyboard-response;381;466256;0.0-381.0;3038149;05/05/2020 16:59
999;999;999;999;fullscreenExp;999;999;999;999;999;999;999;999;999;fullscreen;382;466295;0.0-382.0;3038149;05/05/2020 16:59
999;fixation_cross;999;999;fixation;2;22;2;6;1;5;2;9;0;html-keyboard-response;383;467299;0.0-383.0;3038149;05/05/2020 16:59
999;imgJS/WFN_scramble_64.jpg,imgJS/WFN_scramble_4.jpg,imgJS/WFN_scramble_48.jpg,imgJS/WFN_scramble_52.jpg,imgJS/WFN_scramble_44.jpg,imgJS/WFN_27.jpg,imgJS/WFN_scramble_47.jpg,imgJS/WFN_scramble_51.jpg,imgJS/WFN_scramble_56.jpg,imgJS/WFF_10.jpg,imgJS/WFN;999;999;rsvp_img_15;2;22;2;6;1;5;2;9;0;rsvp_flux;384;468353;0.0-384.0;3038149;05/05/2020 16:59
2499.2100000381;"<div style=""font-size:20px;""><p> Avez-vous vu au moins un homme? </p><p> <strong> Oui [O] / Non [N] </strong></p> </div>";999;78;rsvpAnswHom;2;22;2;6;1;5;2;9;0;html-keyboard-response;385;470855;0.0-385.0;3038149;05/05/2020 16:59
999;999;999;999;fullscreenExp;999;999;999;999;999;999;999;999;999;fullscreen;386;470907;0.0-386.0;3038149;05/05/2020 16:59
999;fixation_cross;999;999;fixation;2;23;2;5;1;4;3;8;0;html-keyboard-response;387;471912;0.0-387.0;3038149;05/05/2020 16:59
999;imgJS/WMN_scramble_82.jpg,imgJS/WMN_scramble_76.jpg,imgJS/WMN_scramble_42.jpg,imgJS/WMN_scramble_52.jpg,imgJS/WMN_49.jpg,imgJS/WMN_scramble_84.jpg,imgJS/WMN_scramble_63.jpg,imgJS/WMN_scramble_25.jpg,imgJS/WFF_26.jpg,imgJS/WMN_scramble_49.jpg,imgJS/WM;999;999;rsvp_img_15;2;23;2;5;1;4;3;8;0;rsvp_flux;388;472966;0.0-388.0;3038149;05/05/2020 16:59
1756.865000003;"<div style=""font-size:20px;""><p> Avez-vous vu au moins une femme? </p><p> <strong> Oui [O] / Non [N] </strong></p> </div>";999;79;rsvpAnswFem;2;23;2;5;1;4;3;8;0;html-keyboard-response;389;474725;0.0-389.0;3038149;05/05/2020 16:59
999;999;999;999;fullscreenExp;999;999;999;999;999;999;999;999;999;fullscreen;390;474770;0.0-390.0;3038149;05/05/2020 16:59
999;fixation_cross;999;999;fixation;2;24;2;5;1;5;3;7;0;html-keyboard-response;391;475774;0.0-391.0;3038149;05/05/2020 16:59
999;imgJS/WMN_scramble_3.jpg,imgJS/WMN_scramble_88.jpg,imgJS/WMN_scramble_68.jpg,imgJS/WMN_scramble_21.jpg,imgJS/WMN_scramble_72.jpg,imgJS/WMN_34.jpg,imgJS/WMN_scramble_60.jpg,imgJS/WFF_6.jpg,imgJS/WMN_scramble_83.jpg,imgJS/WMN_scramble_33.jpg,imgJS/WMN_;999;999;rsvp_img_15;2;24;2;5;1;5;3;7;0;rsvp_flux;392;476830;0.0-392.0;3038149;05/05/2020 16:59
768.30499991775;"<div style=""font-size:20px;""><p> Avez-vous vu au moins une femme? </p><p> <strong> Oui [O] / Non [N] </strong></p> </div>";999;79;rsvpAnswFem;2;24;2;5;1;5;3;7;0;html-keyboard-response;393;477601;0.0-393.0;3038149;05/05/2020 16:59
999;999;999;999;fullscreenExp;999;999;999;999;999;999;999;999;999;fullscreen;394;477642;0.0-394.0;3038149;05/05/2020 16:59
999;fixation_cross;999;999;fixation;2;25;2;6;1;4;2;6;1;html-keyboard-response;395;478646;0.0-395.0;3038149;05/05/2020 16:59
999;imgJS/WFN_scramble_39.jpg,imgJS/WFN_scramble_84.jpg,imgJS/WFN_scramble_57.jpg,imgJS/WFN_scramble_46.jpg,imgJS/WFN_50.jpg,imgJS/WFN_scramble_18.jpg,imgJS/WMF_10.jpg,imgJS/WFN_scramble_6.jpg,imgJS/WFN_scramble_7.jpg,imgJS/WFN_scramble_75.jpg,imgJS/WFN_;999;999;rsvp_img_15;2;25;2;6;1;4;2;6;1;rsvp_flux;396;479700;0.0-396.0;3038149;05/05/2020 16:59
1308.5799999535;"<div style=""font-size:20px;""><p> Avez-vous vu au moins un homme? </p><p> <strong> Oui [O] / Non [N] </strong></p> </div>";999;79;rsvpAnswHom;2;25;2;6;1;4;2;6;1;html-keyboard-response;397;481012;0.0-397.0;3038149;05/05/2020 16:59
999;999;999;999;fullscreenExp;999;999;999;999;999;999;999;999;999;fullscreen;398;481053;0.0-398.0;3038149;05/05/2020 16:59
999;fixation_cross;999;999;fixation;2;26;2;6;1;7;2;9;1;html-keyboard-response;399;482057;0.0-399.0;3038149;05/05/2020 16:59
999;imgJS/WFN_scramble_41.jpg,imgJS/WFN_scramble_48.jpg,imgJS/WFN_scramble_10.jpg,imgJS/WFN_scramble_69.jpg,imgJS/WFN_scramble_45.jpg,imgJS/WFN_scramble_12.jpg,imgJS/WFN_scramble_14.jpg,imgJS/WFN_77.jpg,imgJS/WFN_scramble_35.jpg,imgJS/WMF_11.jpg,imgJS/WF;999;999;rsvp_img_15;2;26;2;6;1;7;2;9;1;rsvp_flux;400;483111;0.0-400.0;3038149;05/05/2020 16:59
788.59000001103;"<div style=""font-size:20px;""><p> Avez-vous vu au moins un homme? </p><p> <strong> Oui [O] / Non [N] </strong></p> </div>";999;79;rsvpAnswHom;2;26;2;6;1;7;2;9;1;html-keyboard-response;401;483903;0.0-401.0;3038149;05/05/2020 16:59
999;999;999;999;fullscreenExp;999;999;999;999;999;999;999;999;999;fullscreen;402;483954;0.0-402.0;3038149;05/05/2020 16:59
999;fixation_cross;999;999;fixation;2;27;2;5;1;8;3;10;1;html-keyboard-response;403;484959;0.0-403.0;3038149;05/05/2020 16:59
999;imgJS/WMN_scramble_86.jpg,imgJS/WMN_scramble_90.jpg,imgJS/WMN_scramble_7.jpg,imgJS/WMN_scramble_11.jpg,imgJS/WMN_scramble_2.jpg,imgJS/WMN_scramble_90.jpg,imgJS/WMN_scramble_16.jpg,imgJS/WMN_scramble_23.jpg,imgJS/WMN_55.jpg,imgJS/WMN_scramble_68.jpg,i;999;999;rsvp_img_15;2;27;2;5;1;8;3;10;1;rsvp_flux;404;486013;0.0-404.0;3038149;05/05/2020 16:59
5786.689999979;"<div style=""font-size:20px;""><p> Avez-vous vu au moins une femme? </p><p> <strong> Oui [O] / Non [N] </strong></p> </div>";999;78;rsvpAnswFem;2;27;2;5;1;8;3;10;1;html-keyboard-response;405;491803;0.0-405.0;3038149;05/05/2020 16:59
999;999;999;999;fullscreenExp;999;999;999;999;999;999;999;999;999;fullscreen;406;491849;0.0-406.0;3038149;05/05/2020 16:59
999;fixation_cross;999;999;fixation;2;28;2;4;1;4;2;8;2;html-keyboard-response;407;492855;0.0-407.0;3038149;05/05/2020 16:59
999;imgJS/WFN_scramble_53.jpg,imgJS/WFN_scramble_21.jpg,imgJS/WFN_scramble_74.jpg,imgJS/WFN_scramble_6.jpg,imgJS/WFN_27.jpg,imgJS/WFN_scramble_42.jpg,imgJS/WFN_scramble_77.jpg,imgJS/WFN_scramble_8.jpg,imgJS/WFN_1.jpg,imgJS/WFN_scramble_32.jpg,imgJS/WFN_s;999;999;rsvp_img_15;2;28;2;4;1;4;2;8;2;rsvp_flux;408;493909;0.0-408.0;3038149;05/05/2020 16:59
2195.4350000015;"<div style=""font-size:20px;""><p> Avez-vous vu au moins un homme? </p><p> <strong> Oui [O] / Non [N] </strong></p> </div>";999;78;rsvpAnswHom;2;28;2;4;1;4;2;8;2;html-keyboard-response;409;496107;0.0-409.0;3038149;05/05/2020 16:59
999;999;999;999;fullscreenExp;999;999;999;999;999;999;999;999;999;fullscreen;410;496147;0.0-410.0;3038149;05/05/2020 16:59
999;fixation_cross;999;999;fixation;2;29;2;6;1;6;2;8;1;html-keyboard-response;411;497152;0.0-411.0;3038149;05/05/2020 16:59
999;imgJS/WFN_scramble_3.jpg,imgJS/WFN_scramble_4.jpg,imgJS/WFN_scramble_78.jpg,imgJS/WFN_scramble_26.jpg,imgJS/WFN_scramble_21.jpg,imgJS/WFN_scramble_59.jpg,imgJS/WFN_63.jpg,imgJS/WFN_scramble_54.jpg,imgJS/WMF_29.jpg,imgJS/WFN_scramble_47.jpg,imgJS/WFN_;999;999;rsvp_img_15;2;29;2;6;1;6;2;8;1;rsvp_flux;412;498206;0.0-412.0;3038149;05/05/2020 16:59
1491.7999999598;"<div style=""font-size:20px;""><p> Avez-vous vu au moins un homme? </p><p> <strong> Oui [O] / Non [N] </strong></p> </div>";999;79;rsvpAnswHom;2;29;2;6;1;6;2;8;1;html-keyboard-response;413;499701;0.0-413.0;3038149;05/05/2020 16:59
999;999;999;999;fullscreenExp;999;999;999;999;999;999;999;999;999;fullscreen;414;499756;0.0-414.0;3038149;05/05/2020 16:59
999;instructions/instructionsDiapo/Slide7.jpg;999;999;instrCondi;3;999;NULL;NULL;2;999;999;999;999;image-keyboard-response;415;504394;0.0-415.0;3038149;05/05/2020 16:59
999;fixation_cross;999;999;fixation;3;0;2;6;2;5;2;9;1;html-keyboard-response;416;505399;0.0-416.0;3038149;05/05/2020 16:59
999;imgJS/WFN_scramble_33.jpg,imgJS/WFN_scramble_1.jpg,imgJS/WFN_scramble_2.jpg,imgJS/WFN_scramble_43.jpg,imgJS/WFN_scramble_77.jpg,imgJS/WFN_55.jpg,imgJS/WFN_scramble_55.jpg,imgJS/WFN_scramble_73.jpg,imgJS/WFN_scramble_26.jpg,imgJS/WMF_12.jpg,imgJS/WFN_;999;999;rsvp_img_15;3;0;2;6;2;5;2;9;1;rsvp_flux;417;506454;0.0-417.0;3038149;05/05/2020 16:59
1075.0149999512;"<div style=""font-size:20px;""><p> Avez-vous vu au moins un homme? </p><p> <strong> Oui [O] / Non [N] </strong></p> </div>";999;79;rsvpAnswHom;3;0;2;6;2;5;2;9;1;html-keyboard-response;418;507532;0.0-418.0;3038149;05/05/2020 16:59
999;999;999;999;fullscreenExp;999;999;999;999;999;999;999;999;999;fullscreen;419;507573;0.0-419.0;3038149;05/05/2020 16:59
999;fixation_cross;999;999;fixation;3;1;2;6;2;8;2;12;0;html-keyboard-response;420;508579;0.0-420.0;3038149;05/05/2020 16:59
999;imgJS/WFN_scramble_26.jpg,imgJS/WFN_scramble_6.jpg,imgJS/WFN_scramble_31.jpg,imgJS/WFN_scramble_7.jpg,imgJS/WFN_scramble_67.jpg,imgJS/WFN_scramble_17.jpg,imgJS/WFN_scramble_61.jpg,imgJS/WFN_scramble_13.jpg,imgJS/WFN_22.jpg,imgJS/WFN_scramble_56.jpg,i;999;999;rsvp_img_15;3;1;2;6;2;8;2;12;0;rsvp_flux;421;509633;0.0-421.0;3038149;05/05/2020 16:59
1487.669999944;"<div style=""font-size:20px;""><p> Avez-vous vu au moins un homme? </p><p> <strong> Oui [O] / Non [N] </strong></p> </div>";999;78;rsvpAnswHom;3;1;2;6;2;8;2;12;0;html-keyboard-response;422;511124;0.0-422.0;3038149;05/05/2020 16:59
999;999;999;999;fullscreenExp;999;999;999;999;999;999;999;999;999;fullscreen;423;511174;0.0-423.0;3038149;05/05/2020 16:59
999;fixation_cross;999;999;fixation;3;2;2;5;2;8;3;10;1;html-keyboard-response;424;512179;0.0-424.0;3038149;05/05/2020 16:59
999;imgJS/WMN_scramble_84.jpg,imgJS/WMN_scramble_30.jpg,imgJS/WMN_scramble_89.jpg,imgJS/WMN_scramble_12.jpg,imgJS/WMN_scramble_50.jpg,imgJS/WMN_scramble_73.jpg,imgJS/WMN_scramble_7.jpg,imgJS/WMN_scramble_21.jpg,imgJS/WMN_83.jpg,imgJS/WMN_scramble_12.jpg,;999;999;rsvp_img_15;3;2;2;5;2;8;3;10;1;rsvp_flux;425;513233;0.0-425.0;3038149;05/05/2020 16:59
2302.3249999387;"<div style=""font-size:20px;""><p> Avez-vous vu au moins une femme? </p><p> <strong> Oui [O] / Non [N] </strong></p> </div>";999;78;rsvpAnswFem;3;2;2;5;2;8;3;10;1;html-keyboard-response;426;515538;0.0-426.0;3038149;05/05/2020 16:59
999;999;999;999;fullscreenExp;999;999;999;999;999;999;999;999;999;fullscreen;427;515582;0.0-427.0;3038149;05/05/2020 16:59
999;fixation_cross;999;999;fixation;3;3;2;3;2;6;1;8;0;html-keyboard-response;428;516586;0.0-428.0;3038149;05/05/2020 16:59
999;imgJS/WMF_scramble_5.jpg,imgJS/WMF_scramble_15.jpg,imgJS/WMF_scramble_18.jpg,imgJS/WMF_scramble_22.jpg,imgJS/WMF_scramble_2.jpg,imgJS/WMF_scramble_7.jpg,imgJS/WMF_27.jpg,imgJS/WMF_scramble_4.jpg,imgJS/WFF_2.jpg,imgJS/WMF_scramble_1.jpg,imgJS/WMF_scra;999;999;rsvp_img_15;3;3;2;3;2;6;1;8;0;rsvp_flux;429;517641;0.0-429.0;3038149;05/05/2020 16:59
1821.8399999896;"<div style=""font-size:20px;""><p> Avez-vous vu au moins une femme? </p><p> <strong> Oui [O] / Non [N] </strong></p> </div>";999;79;rsvpAnswFem;3;3;2;3;2;6;1;8;0;html-keyboard-response;430;519465;0.0-430.0;3038149;05/05/2020 16:59
999;999;999;999;fullscreenExp;999;999;999;999;999;999;999;999;999;fullscreen;431;519517;0.0-431.0;3038149;05/05/2020 16:59
999;fixation_cross;999;999;fixation;3;4;2;6;2;4;2;8;0;html-keyboard-response;432;520521;0.0-432.0;3038149;05/05/2020 16:59
999;imgJS/WFN_scramble_53.jpg,imgJS/WFN_scramble_42.jpg,imgJS/WFN_scramble_50.jpg,imgJS/WFN_scramble_46.jpg,imgJS/WFN_52.jpg,imgJS/WFN_scramble_25.jpg,imgJS/WFN_scramble_34.jpg,imgJS/WFN_scramble_28.jpg,imgJS/WFF_26.jpg,imgJS/WFN_scramble_69.jpg,imgJS/WF;999;999;rsvp_img_15;3;4;2;6;2;4;2;8;0;rsvp_flux;433;521575;0.0-433.0;3038149;05/05/2020 16:59
3796.1699999869;"<div style=""font-size:20px;""><p> Avez-vous vu au moins un homme? </p><p> <strong> Oui [O] / Non [N] </strong></p> </div>";999;78;rsvpAnswHom;3;4;2;6;2;4;2;8;0;html-keyboard-response;434;525375;0.0-434.0;3038149;05/05/2020 16:59
999;999;999;999;fullscreenExp;999;999;999;999;999;999;999;999;999;fullscreen;435;525417;0.0-435.0;3038149;05/05/2020 16:59
999;fixation_cross;999;999;fixation;3;5;2;4;2;5;2;7;3;html-keyboard-response;436;526421;0.0-436.0;3038149;05/05/2020 16:59
999;imgJS/WFN_scramble_84.jpg,imgJS/WFN_scramble_86.jpg,imgJS/WFN_scramble_63.jpg,imgJS/WFN_scramble_59.jpg,imgJS/WFN_scramble_80.jpg,imgJS/WFN_52.jpg,imgJS/WFN_scramble_16.jpg,imgJS/WMN_80.jpg,imgJS/WFN_scramble_63.jpg,imgJS/WFN_scramble_49.jpg,imgJS/WF;999;999;rsvp_img_15;3;5;2;4;2;5;2;7;3;rsvp_flux;437;527475;0.0-437.0;3038149;05/05/2020 16:59
1165.0150000351;"<div style=""font-size:20px;""><p> Avez-vous vu au moins un homme? </p><p> <strong> Oui [O] / Non [N] </strong></p> </div>";999;79;rsvpAnswHom;3;5;2;4;2;5;2;7;3;html-keyboard-response;438;528643;0.0-438.0;3038149;05/05/2020 16:59
999;999;999;999;fullscreenExp;999;999;999;999;999;999;999;999;999;fullscreen;439;528686;0.0-439.0;3038149;05/05/2020 16:59
999;fixation_cross;999;999;fixation;3;6;2;5;2;7;3;11;0;html-keyboard-response;440;529691;0.0-440.0;3038149;05/05/2020 16:59
999;imgJS/WMN_scramble_15.jpg,imgJS/WMN_scramble_57.jpg,imgJS/WMN_scramble_64.jpg,imgJS/WMN_scramble_29.jpg,imgJS/WMN_scramble_76.jpg,imgJS/WMN_scramble_5.jpg,imgJS/WMN_scramble_35.jpg,imgJS/WMN_79.jpg,imgJS/WMN_scramble_38.jpg,imgJS/WMN_scramble_59.jpg,;999;999;rsvp_img_15;3;6;2;5;2;7;3;11;0;rsvp_flux;441;530745;0.0-441.0;3038149;05/05/2020 16:59
962.6350000035;"<div style=""font-size:20px;""><p> Avez-vous vu au moins une femme? </p><p> <strong> Oui [O] / Non [N] </strong></p> </div>";999;79;rsvpAnswFem;3;6;2;5;2;7;3;11;0;html-keyboard-response;442;531712;0.0-442.0;3038149;05/05/2020 16:59
999;999;999;999;fullscreenExp;999;999;999;999;999;999;999;999;999;fullscreen;443;531751;0.0-443.0;3038149;05/05/2020 16:59
999;fixation_cross;999;999;fixation;3;7;2;6;2;4;2;6;0;html-keyboard-response;444;532754;0.0-444.0;3038149;05/05/2020 16:59
999;imgJS/WFN_scramble_63.jpg,imgJS/WFN_scramble_16.jpg,imgJS/WFN_scramble_10.jpg,imgJS/WFN_scramble_12.jpg,imgJS/WFN_65.jpg,imgJS/WFN_scramble_48.jpg,imgJS/WFF_26.jpg,imgJS/WFN_scramble_41.jpg,imgJS/WFN_scramble_59.jpg,imgJS/WFN_scramble_73.jpg,imgJS/WF;999;999;rsvp_img_15;3;7;2;6;2;4;2;6;0;rsvp_flux;445;533808;0.0-445.0;3038149;05/05/2020 16:59
1626.8799999962;"<div style=""font-size:20px;""><p> Avez-vous vu au moins un homme? </p><p> <strong> Oui [O] / Non [N] </strong></p> </div>";999;79;rsvpAnswHom;3;7;2;6;2;4;2;6;0;html-keyboard-response;446;535439;0.0-446.0;3038149;05/05/2020 16:59
999;999;999;999;fullscreenExp;999;999;999;999;999;999;999;999;999;fullscreen;447;535485;0.0-447.0;3038149;05/05/2020 16:59
999;fixation_cross;999;999;fixation;3;8;2;6;2;8;2;10;0;html-keyboard-response;448;536494;0.0-448.0;3038149;05/05/2020 16:59
999;imgJS/WFN_scramble_78.jpg,imgJS/WFN_scramble_16.jpg,imgJS/WFN_scramble_15.jpg,imgJS/WFN_scramble_81.jpg,imgJS/WFN_scramble_81.jpg,imgJS/WFN_scramble_14.jpg,imgJS/WFN_scramble_71.jpg,imgJS/WFN_scramble_23.jpg,imgJS/WFN_43.jpg,imgJS/WFN_scramble_47.jpg;999;999;rsvp_img_15;3;8;2;6;2;8;2;10;0;rsvp_flux;449;537552;0.0-449.0;3038149;05/05/2020 16:59
3372.0500000054;"<div style=""font-size:20px;""><p> Avez-vous vu au moins un homme? </p><p> <strong> Oui [O] / Non [N] </strong></p> </div>";999;78;rsvpAnswHom;3;8;2;6;2;8;2;10;0;html-keyboard-response;450;540927;0.0-450.0;3038149;05/05/2020 16:59
999;999;999;999;fullscreenExp;999;999;999;999;999;999;999;999;999;fullscreen;451;540965;0.0-451.0;3038149;05/05/2020 16:59
999;fixation_cross;999;999;fixation;3;9;2;5;2;6;3;10;1;html-keyboard-response;452;541969;0.0-452.0;3038149;05/05/2020 16:59
999;imgJS/WMN_scramble_26.jpg,imgJS/WMN_scramble_88.jpg,imgJS/WMN_scramble_62.jpg,imgJS/WMN_scramble_37.jpg,imgJS/WMN_scramble_55.jpg,imgJS/WMN_scramble_88.jpg,imgJS/WMN_66.jpg,imgJS/WMN_scramble_13.jpg,imgJS/WMN_scramble_73.jpg,imgJS/WMN_scramble_51.jpg;999;999;rsvp_img_15;3;9;2;5;2;6;3;10;1;rsvp_flux;453;543024;0.0-453.0;3038149;05/05/2020 16:59
1208.7449999526;"<div style=""font-size:20px;""><p> Avez-vous vu au moins une femme? </p><p> <strong> Oui [O] / Non [N] </strong></p> </div>";999;78;rsvpAnswFem;3;9;2;5;2;6;3;10;1;html-keyboard-response;454;544235;0.0-454.0;3038149;05/05/2020 16:59
999;999;999;999;fullscreenExp;999;999;999;999;999;999;999;999;999;fullscreen;455;544279;0.0-455.0;3038149;05/05/2020 16:59
999;fixation_cross;999;999;fixation;3;10;2;6;2;7;2;11;1;html-keyboard-response;456;545283;0.0-456.0;3038149;05/05/2020 16:59
999;imgJS/WFN_scramble_80.jpg,imgJS/WFN_scramble_53.jpg,imgJS/WFN_scramble_13.jpg,imgJS/WFN_scramble_78.jpg,imgJS/WFN_scramble_77.jpg,imgJS/WFN_scramble_69.jpg,imgJS/WFN_scramble_15.jpg,imgJS/WFN_10.jpg,imgJS/WFN_scramble_26.jpg,imgJS/WFN_scramble_42.jpg;999;999;rsvp_img_15;3;10;2;6;2;7;2;11;1;rsvp_flux;457;546337;0.0-457.0;3038149;05/05/2020 16:59
3686.774999951;"<div style=""font-size:20px;""><p> Avez-vous vu au moins un homme? </p><p> <strong> Oui [O] / Non [N] </strong></p> </div>";999;78;rsvpAnswHom;3;10;2;6;2;7;2;11;1;html-keyboard-response;458;550028;0.0-458.0;3038149;05/05/2020 16:59
999;999;999;999;fullscreenExp;999;999;999;999;999;999;999;999;999;fullscreen;459;550068;0.0-459.0;3038149;05/05/2020 16:59
999;fixation_cross;999;999;fixation;3;11;2;6;2;4;2;8;0;html-keyboard-response;460;551073;0.0-460.0;3038149;05/05/2020 16:59
999;imgJS/WFN_scramble_58.jpg,imgJS/WFN_scramble_83.jpg,imgJS/WFN_scramble_58.jpg,imgJS/WFN_scramble_24.jpg,imgJS/WFN_61.jpg,imgJS/WFN_scramble_16.jpg,imgJS/WFN_scramble_22.jpg,imgJS/WFN_scramble_26.jpg,imgJS/WFF_21.jpg,imgJS/WFN_scramble_53.jpg,imgJS/WF;999;999;rsvp_img_15;3;11;2;6;2;4;2;8;0;rsvp_flux;461;552126;0.0-461.0;3038149;05/05/2020 16:59
1508.6449999362;"<div style=""font-size:20px;""><p> Avez-vous vu au moins un homme? </p><p> <strong> Oui [O] / Non [N] </strong></p> </div>";999;78;rsvpAnswHom;3;11;2;6;2;4;2;8;0;html-keyboard-response;462;553638;0.0-462.0;3038149;05/05/2020 16:59
999;999;999;999;fullscreenExp;999;999;999;999;999;999;999;999;999;fullscreen;463;553679;0.0-463.0;3038149;05/05/2020 16:59
999;fixation_cross;999;999;fixation;3;12;2;5;2;8;3;10;1;html-keyboard-response;464;554684;0.0-464.0;3038149;05/05/2020 16:59
999;imgJS/WMN_scramble_46.jpg,imgJS/WMN_scramble_72.jpg,imgJS/WMN_scramble_58.jpg,imgJS/WMN_scramble_5.jpg,imgJS/WMN_scramble_48.jpg,imgJS/WMN_scramble_77.jpg,imgJS/WMN_scramble_72.jpg,imgJS/WMN_scramble_12.jpg,imgJS/WMN_28.jpg,imgJS/WMN_scramble_72.jpg,;999;999;rsvp_img_15;3;12;2;5;2;8;3;10;1;rsvp_flux;465;555738;0.0-465.0;3038149;05/05/2020 16:59
2360.2200000314;"<div style=""font-size:20px;""><p> Avez-vous vu au moins une femme? </p><p> <strong> Oui [O] / Non [N] </strong></p> </div>";999;79;rsvpAnswFem;3;12;2;5;2;8;3;10;1;html-keyboard-response;466;558101;0.0-466.0;3038149;05/05/2020 16:59
999;999;999;999;fullscreenExp;999;999;999;999;999;999;999;999;999;fullscreen;467;558141;0.0-467.0;3038149;05/05/2020 16:59
999;fixation_cross;999;999;fixation;3;13;2;5;2;4;3;8;0;html-keyboard-response;468;559145;0.0-468.0;3038149;05/05/2020 16:59
999;imgJS/WMN_scramble_20.jpg,imgJS/WMN_scramble_87.jpg,imgJS/WMN_scramble_73.jpg,imgJS/WMN_scramble_59.jpg,imgJS/WMN_12.jpg,imgJS/WMN_scramble_38.jpg,imgJS/WMN_scramble_63.jpg,imgJS/WMN_scramble_19.jpg,imgJS/WFF_12.jpg,imgJS/WMN_scramble_45.jpg,imgJS/WM;999;999;rsvp_img_15;3;13;2;5;2;4;3;8;0;rsvp_flux;469;560199;0.0-469.0;3038149;05/05/2020 16:59
832.19999994617;"<div style=""font-size:20px;""><p> Avez-vous vu au moins une femme? </p><p> <strong> Oui [O] / Non [N] </strong></p> </div>";999;79;rsvpAnswFem;3;13;2;5;2;4;3;8;0;html-keyboard-response;470;561035;0.0-470.0;3038149;05/05/2020 16:59
999;999;999;999;fullscreenExp;999;999;999;999;999;999;999;999;999;fullscreen;471;561074;0.0-471.0;3038149;05/05/2020 16:59
999;fixation_cross;999;999;fixation;3;14;2;5;2;5;3;9;1;html-keyboard-response;472;562079;0.0-472.0;3038149;05/05/2020 16:59
999;imgJS/WMN_scramble_20.jpg,imgJS/WMN_scramble_74.jpg,imgJS/WMN_scramble_5.jpg,imgJS/WMN_scramble_3.jpg,imgJS/WMN_scramble_26.jpg,imgJS/WMN_75.jpg,imgJS/WMN_scramble_1.jpg,imgJS/WMN_scramble_69.jpg,imgJS/WMN_scramble_54.jpg,imgJS/WMF_7.jpg,imgJS/WMN_sc;999;999;rsvp_img_15;3;14;2;5;2;5;3;9;1;rsvp_flux;473;563133;0.0-473.0;3038149;05/05/2020 16:59
