runID	startTime	doneTime	participant_participantID	taskSession_taskSessionID	taskSessionID	sessionName	openingTime	closingTime	task_taskID	rt	stimulus	responses	key_press	test_part	blockNb	trialNb	condiEmoBlock	condiEmoTrial	condiRwd	posCritDist	distractor	posTarget	target	trial_type	trial_index	time_elapsed	internal_node_id	run_id	date	
15	2020-05-26 08:39:43		user9	1	1	EMOREG_S1	2020-05-09 00:00:00	2021-05-10 00:00:00	EMOREG	999	999	999	999	firstFullscreen	999	999	999	999	999	999	999	999	999	fullscreen	0	3763	0.0-0.0	15	10:39 26-5-2020	
15	2020-05-26 08:39:43		user9	1	1	EMOREG_S1	2020-05-09 00:00:00	2021-05-10 00:00:00	EMOREG	54804.209999973	999	[{"page":0,"time":1808.9649999747053},{"page":1,"time":5107.0250000339},{"page":2,"time":46108.04500000086},{"page":3,"time":503.5400000051595},{"page":4,"time":622.1349999541417},{"page":5,"time":653.7400000379421}]	999	instr	999	999	999	999	999	999	999	999	999	instructions	1	58580	0.0-1.0	15	10:39 26-5-2020	
15	2020-05-26 08:39:43		user9	1	1	EMOREG_S1	2020-05-09 00:00:00	2021-05-10 00:00:00	EMOREG	999	fixation_cross	999	999	fixation	0	0	2	4	2	6	0	8	0	html-keyboard-response	2	59593	0.0-2.0	15	10:39 26-5-2020	
15	2020-05-26 08:39:43		user9	1	1	EMOREG_S1	2020-05-09 00:00:00	2021-05-10 00:00:00	EMOREG	999	imgJS/WFF_scramble_26.jpg,imgJS/WFF_scramble_27.jpg,imgJS/WFF_scramble_3.jpg,imgJS/WFF_scramble_23.jpg,imgJS/WFF_scramble_16.jpg,imgJS/WFF_scramble_36.jpg,imgJS/WFF_20.jpg,imgJS/WFF_scramble_21.jpg,imgJS/WFF_36.jpg,imgJS/WFF_scramble_18.jpg,imgJS/WFF_scramble_8.jpg,imgJS/WFF_scramble_25.jpg,imgJS/WFF_scramble_13.jpg,imgJS/WFF_scramble_9.jpg,imgJS/WFF_scramble_21.jpg	999	999	rsvp_img_15	0	0	2	4	2	6	0	8	0	rsvp_flux	3	60649	0.0-3.0	15	10:39 26-5-2020	
19	2020-05-26 08:41:49		user6	1	1	EMOREG_S1	2020-05-09 00:00:00	2021-05-10 00:00:00	EMOREG	999	999	999	999	firstFullscreen	999	999	999	999	999	999	999	999	999	fullscreen	0	1735	0.0-0.0	19	10:41 26-5-2020	
19	2020-05-26 08:41:49		user6	1	1	EMOREG_S1	2020-05-09 00:00:00	2021-05-10 00:00:00	EMOREG	9167.5599999726	999	[{"page":0,"time":2250.575000070967},{"page":1,"time":1381.95499998983},{"page":2,"time":1860.1049999706447},{"page":3,"time":1133.8400000240654},{"page":4,"time":1010.0049999309704},{"page":5,"time":1530.4999999934807}]	999	instr	999	999	999	999	999	999	999	999	999	instructions	1	10942	0.0-1.0	19	10:41 26-5-2020	
19	2020-05-26 08:41:49		user6	1	1	EMOREG_S1	2020-05-09 00:00:00	2021-05-10 00:00:00	EMOREG	999	fixation_cross	999	999	fixation	0	0	1	3	1	8	3	10	2	html-keyboard-response	2	12004	0.0-2.0	19	10:41 26-5-2020	
19	2020-05-26 08:41:49		user6	1	1	EMOREG_S1	2020-05-09 00:00:00	2021-05-10 00:00:00	EMOREG	999	imgJS/WMN_scramble_25.jpg,imgJS/WMN_scramble_78.jpg,imgJS/WMN_scramble_29.jpg,imgJS/WMN_scramble_47.jpg,imgJS/WMN_scramble_45.jpg,imgJS/WMN_scramble_18.jpg,imgJS/WMN_scramble_85.jpg,imgJS/WMN_scramble_74.jpg,imgJS/WMN_14.jpg,imgJS/WMN_scramble_17.jpg,imgJS/WFN_70.jpg,imgJS/WMN_scramble_36.jpg,imgJS/WMN_scramble_51.jpg,imgJS/WMN_scramble_26.jpg,imgJS/WMN_scramble_30.jpg	999	999	rsvp_img_15	0	0	1	3	1	8	3	10	2	rsvp_flux	3	13060	0.0-3.0	19	10:41 26-5-2020	
23	2020-05-26 08:48:44		user9	1	1	EMOREG_S1	2020-05-09 00:00:00	2021-05-10 00:00:00	EMOREG	999	999	999	999	firstFullscreen	999	999	999	999	999	999	999	999	999	fullscreen	0	4473	0.0-0.0	23	10:48 26-5-2020	
26	2020-05-26 09:22:47		user7	1	1	EMOREG_S1	2020-05-09 00:00:00	2021-05-10 00:00:00	EMOREG	999	999	999	999	firstFullscreen	999	999	999	999	999	999	999	999	999	fullscreen	0	12494	0.0-0.0	26	11:22 26-5-2020	
26	2020-05-26 09:22:47		user7	1	1	EMOREG_S1	2020-05-09 00:00:00	2021-05-10 00:00:00	EMOREG	4306.1599999201	999	[{"page":0,"time":2193.834999925457},{"page":1,"time":596.155000035651},{"page":2,"time":425.7000000216067},{"page":3,"time":329.0549999801442},{"page":4,"time":286.27000004053116},{"page":5,"time":474.419999984093}]	999	instr	999	999	999	999	999	999	999	999	999	instructions	1	16848	0.0-1.0	26	11:22 26-5-2020	
26	2020-05-26 09:22:47		user7	1	1	EMOREG_S1	2020-05-09 00:00:00	2021-05-10 00:00:00	EMOREG	999	fixation_cross	999	999	fixation	0	0	2	4	2	6	0	10	1	html-keyboard-response	2	17896	0.0-2.0	26	11:22 26-5-2020	
26	2020-05-26 09:22:47		user7	1	1	EMOREG_S1	2020-05-09 00:00:00	2021-05-10 00:00:00	EMOREG	999	imgJS/WFF_scramble_30.jpg,imgJS/WFF_scramble_32.jpg,imgJS/WFF_scramble_16.jpg,imgJS/WFF_scramble_13.jpg,imgJS/WFF_scramble_23.jpg,imgJS/WFF_scramble_34.jpg,imgJS/WFF_14.jpg,imgJS/WFF_scramble_17.jpg,imgJS/WFF_scramble_12.jpg,imgJS/WFF_scramble_17.jpg,imgJS/WMF_9.jpg,imgJS/WFF_scramble_2.jpg,imgJS/WFF_scramble_25.jpg,imgJS/WFF_scramble_16.jpg,imgJS/WFF_scramble_20.jpg	999	999	rsvp_img_15	0	0	2	4	2	6	0	10	1	rsvp_flux	3	18949	0.0-3.0	26	11:22 26-5-2020	
26	2020-05-26 09:22:47		user7	1	1	EMOREG_S1	2020-05-09 00:00:00	2021-05-10 00:00:00	EMOREG	1800.9249999886	<div style="font-size:20px;"><p> Avez-vous vu au moins un homme? </p><p> <strong> Oui [O] / Non [N] </strong></p> </div>	999	78	rsvpAnswHom	0	0	2	4	2	6	0	10	1	html-keyboard-response	4	20753	0.0-4.0	26	11:22 26-5-2020	
26	2020-05-26 09:22:47		user7	1	1	EMOREG_S1	2020-05-09 00:00:00	2021-05-10 00:00:00	EMOREG	999	999	999	999	fullscreenExp	999	999	999	999	999	999	999	999	999	fullscreen	5	20788	0.0-5.0	26	11:22 26-5-2020	
26	2020-05-26 09:22:47		user7	1	1	EMOREG_S1	2020-05-09 00:00:00	2021-05-10 00:00:00	EMOREG	999	fixation_cross	999	999	fixation	0	1	2	3	2	4	1	8	0	html-keyboard-response	6	21792	0.0-6.0	26	11:22 26-5-2020	
26	2020-05-26 09:22:47		user7	1	1	EMOREG_S1	2020-05-09 00:00:00	2021-05-10 00:00:00	EMOREG	999	imgJS/WMF_scramble_11.jpg,imgJS/WMF_scramble_16.jpg,imgJS/WMF_scramble_17.jpg,imgJS/WMF_scramble_29.jpg,imgJS/WMF_14.jpg,imgJS/WMF_scramble_20.jpg,imgJS/WMF_scramble_2.jpg,imgJS/WMF_scramble_11.jpg,imgJS/WFF_18.jpg,imgJS/WMF_scramble_20.jpg,imgJS/WMF_scramble_22.jpg,imgJS/WMF_scramble_18.jpg,imgJS/WMF_scramble_13.jpg,imgJS/WMF_scramble_27.jpg,imgJS/WMF_scramble_20.jpg	999	999	rsvp_img_15	0	1	2	3	2	4	1	8	0	rsvp_flux	7	22845	0.0-7.0	26	11:22 26-5-2020	
26	2020-05-26 09:22:47		user7	1	1	EMOREG_S1	2020-05-09 00:00:00	2021-05-10 00:00:00	EMOREG	493.58500004746	<div style="font-size:20px;"><p> Avez-vous vu au moins une femme? </p><p> <strong> Oui [O] / Non [N] </strong></p> </div>	999	78	rsvpAnswFem	0	1	2	3	2	4	1	8	0	html-keyboard-response	8	23342	0.0-8.0	26	11:22 26-5-2020	
26	2020-05-26 09:22:47		user7	1	1	EMOREG_S1	2020-05-09 00:00:00	2021-05-10 00:00:00	EMOREG	999	999	999	999	fullscreenExp	999	999	999	999	999	999	999	999	999	fullscreen	9	23375	0.0-9.0	26	11:22 26-5-2020	
26	2020-05-26 09:22:47		user7	1	1	EMOREG_S1	2020-05-09 00:00:00	2021-05-10 00:00:00	EMOREG	999	fixation_cross	999	999	fixation	0	2	2	5	2	6	3	10	1	html-keyboard-response	10	24380	0.0-10.0	26	11:22 26-5-2020	
26	2020-05-26 09:22:47		user7	1	1	EMOREG_S1	2020-05-09 00:00:00	2021-05-10 00:00:00	EMOREG	999	imgJS/WMN_scramble_30.jpg,imgJS/WMN_scramble_19.jpg,imgJS/WMN_scramble_74.jpg,imgJS/WMN_scramble_88.jpg,imgJS/WMN_scramble_83.jpg,imgJS/WMN_scramble_1.jpg,imgJS/WMN_63.jpg,imgJS/WMN_scramble_48.jpg,imgJS/WMN_scramble_90.jpg,imgJS/WMN_scramble_57.jpg,imgJS/WMF_29.jpg,imgJS/WMN_scramble_66.jpg,imgJS/WMN_scramble_18.jpg,imgJS/WMN_scramble_22.jpg,imgJS/WMN_scramble_38.jpg	999	999	rsvp_img_15	0	2	2	5	2	6	3	10	1	rsvp_flux	11	25432	0.0-11.0	26	11:22 26-5-2020	
26	2020-05-26 09:22:47		user7	1	1	EMOREG_S1	2020-05-09 00:00:00	2021-05-10 00:00:00	EMOREG	891.07000001241	<div style="font-size:20px;"><p> Avez-vous vu au moins une femme? </p><p> <strong> Oui [O] / Non [N] </strong></p> </div>	999	78	rsvpAnswFem	0	2	2	5	2	6	3	10	1	html-keyboard-response	12	26327	0.0-12.0	26	11:22 26-5-2020	
26	2020-05-26 09:22:47		user7	1	1	EMOREG_S1	2020-05-09 00:00:00	2021-05-10 00:00:00	EMOREG	999	999	999	999	fullscreenExp	999	999	999	999	999	999	999	999	999	fullscreen	13	26361	0.0-13.0	26	11:22 26-5-2020	
26	2020-05-26 09:22:47		user7	1	1	EMOREG_S1	2020-05-09 00:00:00	2021-05-10 00:00:00	EMOREG	999	fixation_cross	999	999	fixation	0	3	2	5	2	5	3	9	1	html-keyboard-response	14	27365	0.0-14.0	26	11:22 26-5-2020	
26	2020-05-26 09:22:47		user7	1	1	EMOREG_S1	2020-05-09 00:00:00	2021-05-10 00:00:00	EMOREG	999	imgJS/WMN_scramble_31.jpg,imgJS/WMN_scramble_22.jpg,imgJS/WMN_scramble_63.jpg,imgJS/WMN_scramble_12.jpg,imgJS/WMN_scramble_50.jpg,imgJS/WMN_68.jpg,imgJS/WMN_scramble_33.jpg,imgJS/WMN_scramble_22.jpg,imgJS/WMN_scramble_49.jpg,imgJS/WMF_18.jpg,imgJS/WMN_scramble_64.jpg,imgJS/WMN_scramble_60.jpg,imgJS/WMN_scramble_3.jpg,imgJS/WMN_scramble_81.jpg,imgJS/WMN_scramble_22.jpg	999	999	rsvp_img_15	0	3	2	5	2	5	3	9	1	rsvp_flux	15	28419	0.0-15.0	26	11:22 26-5-2020	
26	2020-05-26 09:22:47		user7	1	1	EMOREG_S1	2020-05-09 00:00:00	2021-05-10 00:00:00	EMOREG	332.21500006039	<div style="font-size:20px;"><p> Avez-vous vu au moins une femme? </p><p> <strong> Oui [O] / Non [N] </strong></p> </div>	999	78	rsvpAnswFem	0	3	2	5	2	5	3	9	1	html-keyboard-response	16	28753	0.0-16.0	26	11:22 26-5-2020	
26	2020-05-26 09:22:47		user7	1	1	EMOREG_S1	2020-05-09 00:00:00	2021-05-10 00:00:00	EMOREG	999	999	999	999	fullscreenExp	999	999	999	999	999	999	999	999	999	fullscreen	17	28790	0.0-17.0	26	11:22 26-5-2020	
26	2020-05-26 09:22:47		user7	1	1	EMOREG_S1	2020-05-09 00:00:00	2021-05-10 00:00:00	EMOREG	999	fixation_cross	999	999	fixation	0	4	2	6	2	4	2	6	0	html-keyboard-response	18	29795	0.0-18.0	26	11:22 26-5-2020	
26	2020-05-26 09:22:47		user7	1	1	EMOREG_S1	2020-05-09 00:00:00	2021-05-10 00:00:00	EMOREG	999	imgJS/WFN_scramble_77.jpg,imgJS/WFN_scramble_33.jpg,imgJS/WFN_scramble_25.jpg,imgJS/WFN_scramble_2.jpg,imgJS/WFN_73.jpg,imgJS/WFN_scramble_45.jpg,imgJS/WFF_30.jpg,imgJS/WFN_scramble_21.jpg,imgJS/WFN_scramble_62.jpg,imgJS/WFN_scramble_22.jpg,imgJS/WFN_scramble_34.jpg,imgJS/WFN_scramble_50.jpg,imgJS/WFN_scramble_33.jpg,imgJS/WFN_scramble_63.jpg,imgJS/WFN_scramble_60.jpg	999	999	rsvp_img_15	0	4	2	6	2	4	2	6	0	rsvp_flux	19	30849	0.0-19.0	26	11:22 26-5-2020	
26	2020-05-26 09:22:47		user7	1	1	EMOREG_S1	2020-05-09 00:00:00	2021-05-10 00:00:00	EMOREG	658.60500000417	<div style="font-size:20px;"><p> Avez-vous vu au moins un homme? </p><p> <strong> Oui [O] / Non [N] </strong></p> </div>	999	78	rsvpAnswHom	0	4	2	6	2	4	2	6	0	html-keyboard-response	20	31510	0.0-20.0	26	11:22 26-5-2020	
26	2020-05-26 09:22:47		user7	1	1	EMOREG_S1	2020-05-09 00:00:00	2021-05-10 00:00:00	EMOREG	999	999	999	999	fullscreenExp	999	999	999	999	999	999	999	999	999	fullscreen	21	31544	0.0-21.0	26	11:22 26-5-2020	
26	2020-05-26 09:22:47		user7	1	1	EMOREG_S1	2020-05-09 00:00:00	2021-05-10 00:00:00	EMOREG	999	fixation_cross	999	999	fixation	0	5	2	6	2	8	2	10	1	html-keyboard-response	22	32549	0.0-22.0	26	11:22 26-5-2020	
26	2020-05-26 09:22:47		user7	1	1	EMOREG_S1	2020-05-09 00:00:00	2021-05-10 00:00:00	EMOREG	999	imgJS/WFN_scramble_14.jpg,imgJS/WFN_scramble_53.jpg,imgJS/WFN_scramble_30.jpg,imgJS/WFN_scramble_50.jpg,imgJS/WFN_scramble_23.jpg,imgJS/WFN_scramble_43.jpg,imgJS/WFN_scramble_53.jpg,imgJS/WFN_scramble_28.jpg,imgJS/WFN_67.jpg,imgJS/WFN_scramble_36.jpg,imgJS/WMF_26.jpg,imgJS/WFN_scramble_3.jpg,imgJS/WFN_scramble_9.jpg,imgJS/WFN_scramble_23.jpg,imgJS/WFN_scramble_61.jpg	999	999	rsvp_img_15	0	5	2	6	2	8	2	10	1	rsvp_flux	23	33603	0.0-23.0	26	11:22 26-5-2020	
26	2020-05-26 09:22:47		user7	1	1	EMOREG_S1	2020-05-09 00:00:00	2021-05-10 00:00:00	EMOREG	1186.9650000008	<div style="font-size:20px;"><p> Avez-vous vu au moins un homme? </p><p> <strong> Oui [O] / Non [N] </strong></p> </div>	999	79	rsvpAnswHom	0	5	2	6	2	8	2	10	1	html-keyboard-response	24	34792	0.0-24.0	26	11:22 26-5-2020	
26	2020-05-26 09:22:47		user7	1	1	EMOREG_S1	2020-05-09 00:00:00	2021-05-10 00:00:00	EMOREG	999	999	999	999	fullscreenExp	999	999	999	999	999	999	999	999	999	fullscreen	25	34825	0.0-25.0	26	11:22 26-5-2020	
26	2020-05-26 09:22:47		user7	1	1	EMOREG_S1	2020-05-09 00:00:00	2021-05-10 00:00:00	EMOREG	999	fixation_cross	999	999	fixation	1	0	1	1	1	7	1	9	3	html-keyboard-response	26	35830	0.0-26.0	26	11:22 26-5-2020	
26	2020-05-26 09:22:47		user7	1	1	EMOREG_S1	2020-05-09 00:00:00	2021-05-10 00:00:00	EMOREG	999	imgJS/WMF_scramble_10.jpg,imgJS/WMF_scramble_21.jpg,imgJS/WMF_scramble_4.jpg,imgJS/WMF_scramble_22.jpg,imgJS/WMF_scramble_29.jpg,imgJS/WMF_scramble_13.jpg,imgJS/WMF_scramble_26.jpg,imgJS/WMF_26.jpg,imgJS/WMF_scramble_9.jpg,imgJS/WMN_40.jpg,imgJS/WMF_scramble_24.jpg,imgJS/WMF_scramble_2.jpg,imgJS/WMF_scramble_15.jpg,imgJS/WMF_scramble_1.jpg,imgJS/WMF_scramble_29.jpg	999	999	rsvp_img_15	1	0	1	1	1	7	1	9	3	rsvp_flux	27	36883	0.0-27.0	26	11:22 26-5-2020	
26	2020-05-26 09:22:47		user7	1	1	EMOREG_S1	2020-05-09 00:00:00	2021-05-10 00:00:00	EMOREG	1045.2550000045	<div style="font-size:20px;"><p> Avez-vous vu au moins une femme? </p><p> <strong> Oui [O] / Non [N] </strong></p> </div>	999	78	rsvpAnswFem	1	0	1	1	1	7	1	9	3	html-keyboard-response	28	37931	0.0-28.0	26	11:22 26-5-2020	
26	2020-05-26 09:22:47		user7	1	1	EMOREG_S1	2020-05-09 00:00:00	2021-05-10 00:00:00	EMOREG	999	999	999	999	fullscreenExp	999	999	999	999	999	999	999	999	999	fullscreen	29	37977	0.0-29.0	26	11:22 26-5-2020	
26	2020-05-26 09:22:47		user7	1	1	EMOREG_S1	2020-05-09 00:00:00	2021-05-10 00:00:00	EMOREG	999	fixation_cross	999	999	fixation	1	1	1	2	1	7	0	9	3	html-keyboard-response	30	38981	0.0-30.0	26	11:22 26-5-2020	
26	2020-05-26 09:22:47		user7	1	1	EMOREG_S1	2020-05-09 00:00:00	2021-05-10 00:00:00	EMOREG	999	imgJS/WFF_scramble_28.jpg,imgJS/WFF_scramble_12.jpg,imgJS/WFF_scramble_13.jpg,imgJS/WFF_scramble_4.jpg,imgJS/WFF_scramble_15.jpg,imgJS/WFF_scramble_29.jpg,imgJS/WFF_scramble_26.jpg,imgJS/WFF_31.jpg,imgJS/WFF_scramble_1.jpg,imgJS/WMN_71.jpg,imgJS/WFF_scramble_3.jpg,imgJS/WFF_scramble_26.jpg,imgJS/WFF_scramble_15.jpg,imgJS/WFF_scramble_25.jpg,imgJS/WFF_scramble_15.jpg	999	999	rsvp_img_15	1	1	1	2	1	7	0	9	3	rsvp_flux	31	40034	0.0-31.0	26	11:22 26-5-2020	
26	2020-05-26 09:22:47		user7	1	1	EMOREG_S1	2020-05-09 00:00:00	2021-05-10 00:00:00	EMOREG	621.49499997031	<div style="font-size:20px;"><p> Avez-vous vu au moins un homme? </p><p> <strong> Oui [O] / Non [N] </strong></p> </div>	999	78	rsvpAnswHom	1	1	1	2	1	7	0	9	3	html-keyboard-response	32	40658	0.0-32.0	26	11:22 26-5-2020	
26	2020-05-26 09:22:47		user7	1	1	EMOREG_S1	2020-05-09 00:00:00	2021-05-10 00:00:00	EMOREG	999	999	999	999	fullscreenExp	999	999	999	999	999	999	999	999	999	fullscreen	33	40692	0.0-33.0	26	11:22 26-5-2020	
26	2020-05-26 09:22:47		user7	1	1	EMOREG_S1	2020-05-09 00:00:00	2021-05-10 00:00:00	EMOREG	999	fixation_cross	999	999	fixation	1	2	1	1	1	4	1	8	3	html-keyboard-response	34	41695	0.0-34.0	26	11:22 26-5-2020	
26	2020-05-26 09:22:47		user7	1	1	EMOREG_S1	2020-05-09 00:00:00	2021-05-10 00:00:00	EMOREG	999	imgJS/WMF_scramble_8.jpg,imgJS/WMF_scramble_4.jpg,imgJS/WMF_scramble_2.jpg,imgJS/WMF_scramble_5.jpg,imgJS/WMF_16.jpg,imgJS/WMF_scramble_15.jpg,imgJS/WMF_scramble_13.jpg,imgJS/WMF_scramble_9.jpg,imgJS/WMN_64.jpg,imgJS/WMF_scramble_5.jpg,imgJS/WMF_scramble_25.jpg,imgJS/WMF_scramble_5.jpg,imgJS/WMF_scramble_3.jpg,imgJS/WMF_scramble_6.jpg,imgJS/WMF_scramble_17.jpg	999	999	rsvp_img_15	1	2	1	1	1	4	1	8	3	rsvp_flux	35	42748	0.0-35.0	26	11:22 26-5-2020	
26	2020-05-26 09:22:47		user7	1	1	EMOREG_S1	2020-05-09 00:00:00	2021-05-10 00:00:00	EMOREG	1088.6999999639	<div style="font-size:20px;"><p> Avez-vous vu au moins une femme? </p><p> <strong> Oui [O] / Non [N] </strong></p> </div>	999	78	rsvpAnswFem	1	2	1	1	1	4	1	8	3	html-keyboard-response	36	43839	0.0-36.0	26	11:22 26-5-2020	
26	2020-05-26 09:22:47		user7	1	1	EMOREG_S1	2020-05-09 00:00:00	2021-05-10 00:00:00	EMOREG	999	999	999	999	fullscreenExp	999	999	999	999	999	999	999	999	999	fullscreen	37	43873	0.0-37.0	26	11:22 26-5-2020	
26	2020-05-26 09:22:47		user7	1	1	EMOREG_S1	2020-05-09 00:00:00	2021-05-10 00:00:00	EMOREG	999	fixation_cross	999	999	fixation	1	3	1	4	1	8	2	10	3	html-keyboard-response	38	44877	0.0-38.0	26	11:22 26-5-2020	
26	2020-05-26 09:22:47		user7	1	1	EMOREG_S1	2020-05-09 00:00:00	2021-05-10 00:00:00	EMOREG	999	imgJS/WFN_scramble_32.jpg,imgJS/WFN_scramble_18.jpg,imgJS/WFN_scramble_14.jpg,imgJS/WFN_scramble_83.jpg,imgJS/WFN_scramble_10.jpg,imgJS/WFN_scramble_46.jpg,imgJS/WFN_scramble_8.jpg,imgJS/WFN_scramble_86.jpg,imgJS/WFN_17.jpg,imgJS/WFN_scramble_29.jpg,imgJS/WMN_65.jpg,imgJS/WFN_scramble_7.jpg,imgJS/WFN_scramble_25.jpg,imgJS/WFN_scramble_3.jpg,imgJS/WFN_scramble_55.jpg	999	999	rsvp_img_15	1	3	1	4	1	8	2	10	3	rsvp_flux	39	45932	0.0-39.0	26	11:22 26-5-2020	
26	2020-05-26 09:22:47		user7	1	1	EMOREG_S1	2020-05-09 00:00:00	2021-05-10 00:00:00	EMOREG	582.73999998346	<div style="font-size:20px;"><p> Avez-vous vu au moins un homme? </p><p> <strong> Oui [O] / Non [N] </strong></p> </div>	999	78	rsvpAnswHom	1	3	1	4	1	8	2	10	3	html-keyboard-response	40	46517	0.0-40.0	26	11:22 26-5-2020	
26	2020-05-26 09:22:47		user7	1	1	EMOREG_S1	2020-05-09 00:00:00	2021-05-10 00:00:00	EMOREG	999	999	999	999	fullscreenExp	999	999	999	999	999	999	999	999	999	fullscreen	41	46550	0.0-41.0	26	11:22 26-5-2020	
26	2020-05-26 09:22:47		user7	1	1	EMOREG_S1	2020-05-09 00:00:00	2021-05-10 00:00:00	EMOREG	999	fixation_cross	999	999	fixation	1	4	1	2	1	5	0	7	3	html-keyboard-response	42	47553	0.0-42.0	26	11:22 26-5-2020	
26	2020-05-26 09:22:47		user7	1	1	EMOREG_S1	2020-05-09 00:00:00	2021-05-10 00:00:00	EMOREG	999	imgJS/WFF_scramble_10.jpg,imgJS/WFF_scramble_34.jpg,imgJS/WFF_scramble_23.jpg,imgJS/WFF_scramble_2.jpg,imgJS/WFF_scramble_26.jpg,imgJS/WFF_11.jpg,imgJS/WFF_scramble_14.jpg,imgJS/WMN_25.jpg,imgJS/WFF_scramble_30.jpg,imgJS/WFF_scramble_17.jpg,imgJS/WFF_scramble_8.jpg,imgJS/WFF_scramble_16.jpg,imgJS/WFF_scramble_18.jpg,imgJS/WFF_scramble_22.jpg,imgJS/WFF_scramble_35.jpg	999	999	rsvp_img_15	1	4	1	2	1	5	0	7	3	rsvp_flux	43	48606	0.0-43.0	26	11:22 26-5-2020	
26	2020-05-26 09:22:47		user7	1	1	EMOREG_S1	2020-05-09 00:00:00	2021-05-10 00:00:00	EMOREG	694.81000001542	<div style="font-size:20px;"><p> Avez-vous vu au moins un homme? </p><p> <strong> Oui [O] / Non [N] </strong></p> </div>	999	78	rsvpAnswHom	1	4	1	2	1	5	0	7	3	html-keyboard-response	44	49303	0.0-44.0	26	11:22 26-5-2020	
26	2020-05-26 09:22:47		user7	1	1	EMOREG_S1	2020-05-09 00:00:00	2021-05-10 00:00:00	EMOREG	999	999	999	999	fullscreenExp	999	999	999	999	999	999	999	999	999	fullscreen	45	49336	0.0-45.0	26	11:22 26-5-2020	
26	2020-05-26 09:22:47		user7	1	1	EMOREG_S1	2020-05-09 00:00:00	2021-05-10 00:00:00	EMOREG	999	fixation_cross	999	999	fixation	1	5	1	3	1	8	3	10	2	html-keyboard-response	46	50340	0.0-46.0	26	11:22 26-5-2020	
26	2020-05-26 09:22:47		user7	1	1	EMOREG_S1	2020-05-09 00:00:00	2021-05-10 00:00:00	EMOREG	999	imgJS/WMN_scramble_8.jpg,imgJS/WMN_scramble_72.jpg,imgJS/WMN_scramble_16.jpg,imgJS/WMN_scramble_25.jpg,imgJS/WMN_scramble_76.jpg,imgJS/WMN_scramble_89.jpg,imgJS/WMN_scramble_67.jpg,imgJS/WMN_scramble_18.jpg,imgJS/WMN_24.jpg,imgJS/WMN_scramble_51.jpg,imgJS/WFN_81.jpg,imgJS/WMN_scramble_77.jpg,imgJS/WMN_scramble_61.jpg,imgJS/WMN_scramble_3.jpg,imgJS/WMN_scramble_34.jpg	999	999	rsvp_img_15	1	5	1	3	1	8	3	10	2	rsvp_flux	47	51393	0.0-47.0	26	11:22 26-5-2020	
26	2020-05-26 09:22:47		user7	1	1	EMOREG_S1	2020-05-09 00:00:00	2021-05-10 00:00:00	EMOREG	1201.2650000397	<div style="font-size:20px;"><p> Avez-vous vu au moins une femme? </p><p> <strong> Oui [O] / Non [N] </strong></p> </div>	999	78	rsvpAnswFem	1	5	1	3	1	8	3	10	2	html-keyboard-response	48	52597	0.0-48.0	26	11:22 26-5-2020	
26	2020-05-26 09:22:47		user7	1	1	EMOREG_S1	2020-05-09 00:00:00	2021-05-10 00:00:00	EMOREG	999	999	999	999	fullscreenExp	999	999	999	999	999	999	999	999	999	fullscreen	49	52630	0.0-49.0	26	11:22 26-5-2020	
26	2020-05-26 09:22:47		user7	1	1	EMOREG_S1	2020-05-09 00:00:00	2021-05-10 00:00:00	EMOREG	999	999	999	999	fullscreenExp	999	999	999	999	999	999	999	999	999	fullscreen	50	52663	0.0-50.0	26	11:22 26-5-2020	
26	2020-05-26 09:22:47		user7	1	1	EMOREG_S1	2020-05-09 00:00:00	2021-05-10 00:00:00	EMOREG	999	instructions/instructionsDiapo/Slide7.jpg	999	999	instr	999	999	999	999	999	999	999	999	999	image-keyboard-response	51	10108185	0.0-51.0	26	11:22 26-5-2020	
26	2020-05-26 09:22:47		user7	1	1	EMOREG_S1	2020-05-09 00:00:00	2021-05-10 00:00:00	EMOREG	999	instructions/instructionsDiapo/Slide9.jpg	999	999	instrCondi	0	999			2	999	999	999	999	image-keyboard-response	52	10109128	0.0-52.0	26	11:22 26-5-2020	
26	2020-05-26 09:22:47		user7	1	1	EMOREG_S1	2020-05-09 00:00:00	2021-05-10 00:00:00	EMOREG	999	fixation_cross	999	999	fixation	0	0	1	1	2	5	1	9	3	html-keyboard-response	53	10110133	0.0-53.0	26	11:22 26-5-2020	
26	2020-05-26 09:22:47		user7	1	1	EMOREG_S1	2020-05-09 00:00:00	2021-05-10 00:00:00	EMOREG	999	imgJS/WMF_scramble_24.jpg,imgJS/WMF_scramble_14.jpg,imgJS/WMF_scramble_10.jpg,imgJS/WMF_scramble_9.jpg,imgJS/WMF_scramble_11.jpg,imgJS/WMF_14.jpg,imgJS/WMF_scramble_2.jpg,imgJS/WMF_scramble_8.jpg,imgJS/WMF_scramble_13.jpg,imgJS/WMN_16.jpg,imgJS/WMF_scramble_13.jpg,imgJS/WMF_scramble_10.jpg,imgJS/WMF_scramble_28.jpg,imgJS/WMF_scramble_4.jpg,imgJS/WMF_scramble_5.jpg	999	999	rsvp_img_15	0	0	1	1	2	5	1	9	3	rsvp_flux	54	10111187	0.0-54.0	26	11:22 26-5-2020	
26	2020-05-26 09:22:47		user7	1	1	EMOREG_S1	2020-05-09 00:00:00	2021-05-10 00:00:00	EMOREG	596.36999992654	<div style="font-size:20px;"><p> Avez-vous vu au moins une femme? </p><p> <strong> Oui [O] / Non [N] </strong></p> </div>	999	78	rsvpAnswFem	0	0	1	1	2	5	1	9	3	html-keyboard-response	55	10111786	0.0-55.0	26	11:22 26-5-2020	
27	2020-05-26 12:13:28	2020-05-26 12:39:35	user7	1	1	EMOREG_S1	2020-05-09 00:00:00	2021-05-10 00:00:00	EMOREG	999	999	999	999	firstFullscreen	999	999	999	999	999	999	999	999	999	fullscreen	0	1206	0.0-0.0	27	14:13 26-5-2020	
27	2020-05-26 12:13:28	2020-05-26 12:39:35	user7	1	1	EMOREG_S1	2020-05-09 00:00:00	2021-05-10 00:00:00	EMOREG	1376.0699999984	999	[{"page":0,"time":454.8649999778718},{"page":1,"time":196.9200000166893},{"page":2,"time":190.41000003926456},{"page":3,"time":170.89999991003424},{"page":4,"time":169.78500003460795},{"page":5,"time":192.87999998778105}]	999	instr	999	999	999	999	999	999	999	999	999	instructions	1	2620	0.0-1.0	27	14:13 26-5-2020	
27	2020-05-26 12:13:28	2020-05-26 12:39:35	user7	1	1	EMOREG_S1	2020-05-09 00:00:00	2021-05-10 00:00:00	EMOREG	999	fixation_cross	999	999	fixation	0	0	1	2	1	6	0	10	3	html-keyboard-response	2	3664	0.0-2.0	27	14:13 26-5-2020	
27	2020-05-26 12:13:28	2020-05-26 12:39:35	user7	1	1	EMOREG_S1	2020-05-09 00:00:00	2021-05-10 00:00:00	EMOREG	999	imgJS/WFF_scramble_36.jpg,imgJS/WFF_scramble_27.jpg,imgJS/WFF_scramble_6.jpg,imgJS/WFF_scramble_6.jpg,imgJS/WFF_scramble_15.jpg,imgJS/WFF_scramble_6.jpg,imgJS/WFF_11.jpg,imgJS/WFF_scramble_14.jpg,imgJS/WFF_scramble_7.jpg,imgJS/WFF_scramble_30.jpg,imgJS/WMN_88.jpg,imgJS/WFF_scramble_11.jpg,imgJS/WFF_scramble_12.jpg,imgJS/WFF_scramble_18.jpg,imgJS/WFF_scramble_4.jpg	999	999	rsvp_img_15	0	0	1	2	1	6	0	10	3	rsvp_flux	3	4718	0.0-3.0	27	14:13 26-5-2020	
27	2020-05-26 12:13:28	2020-05-26 12:39:35	user7	1	1	EMOREG_S1	2020-05-09 00:00:00	2021-05-10 00:00:00	EMOREG	1031.3449999085	<div style="font-size:20px;"><p> Avez-vous vu au moins un homme? </p><p> <strong> Oui [O] / Non [N] </strong></p> </div>	999	78	rsvpAnswHom	0	0	1	2	1	6	0	10	3	html-keyboard-response	4	5754	0.0-4.0	27	14:13 26-5-2020	
27	2020-05-26 12:13:28	2020-05-26 12:39:35	user7	1	1	EMOREG_S1	2020-05-09 00:00:00	2021-05-10 00:00:00	EMOREG	999	999	999	999	fullscreenExp	999	999	999	999	999	999	999	999	999	fullscreen	5	5788	0.0-5.0	27	14:13 26-5-2020	
27	2020-05-26 12:13:28	2020-05-26 12:39:35	user7	1	1	EMOREG_S1	2020-05-09 00:00:00	2021-05-10 00:00:00	EMOREG	999	fixation_cross	999	999	fixation	0	1	1	1	1	4	1	8	3	html-keyboard-response	6	6792	0.0-6.0	27	14:13 26-5-2020	
27	2020-05-26 12:13:28	2020-05-26 12:39:35	user7	1	1	EMOREG_S1	2020-05-09 00:00:00	2021-05-10 00:00:00	EMOREG	999	imgJS/WMF_scramble_14.jpg,imgJS/WMF_scramble_27.jpg,imgJS/WMF_scramble_26.jpg,imgJS/WMF_scramble_26.jpg,imgJS/WMF_25.jpg,imgJS/WMF_scramble_4.jpg,imgJS/WMF_scramble_2.jpg,imgJS/WMF_scramble_19.jpg,imgJS/WMN_88.jpg,imgJS/WMF_scramble_13.jpg,imgJS/WMF_scramble_25.jpg,imgJS/WMF_scramble_9.jpg,imgJS/WMF_scramble_12.jpg,imgJS/WMF_scramble_19.jpg,imgJS/WMF_scramble_22.jpg	999	999	rsvp_img_15	0	1	1	1	1	4	1	8	3	rsvp_flux	7	7845	0.0-7.0	27	14:13 26-5-2020	
27	2020-05-26 12:13:28	2020-05-26 12:39:35	user7	1	1	EMOREG_S1	2020-05-09 00:00:00	2021-05-10 00:00:00	EMOREG	582.93499995489	<div style="font-size:20px;"><p> Avez-vous vu au moins une femme? </p><p> <strong> Oui [O] / Non [N] </strong></p> </div>	999	79	rsvpAnswFem	0	1	1	1	1	4	1	8	3	html-keyboard-response	8	8431	0.0-8.0	27	14:13 26-5-2020	
27	2020-05-26 12:13:28	2020-05-26 12:39:35	user7	1	1	EMOREG_S1	2020-05-09 00:00:00	2021-05-10 00:00:00	EMOREG	999	999	999	999	fullscreenExp	999	999	999	999	999	999	999	999	999	fullscreen	9	8474	0.0-9.0	27	14:13 26-5-2020	
27	2020-05-26 12:13:28	2020-05-26 12:39:35	user7	1	1	EMOREG_S1	2020-05-09 00:00:00	2021-05-10 00:00:00	EMOREG	999	fixation_cross	999	999	fixation	0	2	1	1	1	7	1	11	2	html-keyboard-response	10	9479	0.0-10.0	27	14:13 26-5-2020	
27	2020-05-26 12:13:28	2020-05-26 12:39:35	user7	1	1	EMOREG_S1	2020-05-09 00:00:00	2021-05-10 00:00:00	EMOREG	999	imgJS/WMF_scramble_20.jpg,imgJS/WMF_scramble_27.jpg,imgJS/WMF_scramble_9.jpg,imgJS/WMF_scramble_19.jpg,imgJS/WMF_scramble_22.jpg,imgJS/WMF_scramble_8.jpg,imgJS/WMF_scramble_14.jpg,imgJS/WMF_28.jpg,imgJS/WMF_scramble_24.jpg,imgJS/WMF_scramble_22.jpg,imgJS/WMF_scramble_14.jpg,imgJS/WFN_76.jpg,imgJS/WMF_scramble_15.jpg,imgJS/WMF_scramble_28.jpg,imgJS/WMF_scramble_2.jpg	999	999	rsvp_img_15	0	2	1	1	1	7	1	11	2	rsvp_flux	11	10533	0.0-11.0	27	14:13 26-5-2020	
27	2020-05-26 12:13:28	2020-05-26 12:39:35	user7	1	1	EMOREG_S1	2020-05-09 00:00:00	2021-05-10 00:00:00	EMOREG	408.96500006784	<div style="font-size:20px;"><p> Avez-vous vu au moins une femme? </p><p> <strong> Oui [O] / Non [N] </strong></p> </div>	999	79	rsvpAnswFem	0	2	1	1	1	7	1	11	2	html-keyboard-response	12	10944	0.0-12.0	27	14:13 26-5-2020	
27	2020-05-26 12:13:28	2020-05-26 12:39:35	user7	1	1	EMOREG_S1	2020-05-09 00:00:00	2021-05-10 00:00:00	EMOREG	999	999	999	999	fullscreenExp	999	999	999	999	999	999	999	999	999	fullscreen	13	10979	0.0-13.0	27	14:13 26-5-2020	
27	2020-05-26 12:13:28	2020-05-26 12:39:35	user7	1	1	EMOREG_S1	2020-05-09 00:00:00	2021-05-10 00:00:00	EMOREG	999	fixation_cross	999	999	fixation	0	3	1	3	1	5	3	7	2	html-keyboard-response	14	11984	0.0-14.0	27	14:13 26-5-2020	
27	2020-05-26 12:13:28	2020-05-26 12:39:35	user7	1	1	EMOREG_S1	2020-05-09 00:00:00	2021-05-10 00:00:00	EMOREG	999	imgJS/WMN_scramble_88.jpg,imgJS/WMN_scramble_10.jpg,imgJS/WMN_scramble_71.jpg,imgJS/WMN_scramble_7.jpg,imgJS/WMN_scramble_33.jpg,imgJS/WMN_77.jpg,imgJS/WMN_scramble_23.jpg,imgJS/WFN_62.jpg,imgJS/WMN_scramble_48.jpg,imgJS/WMN_scramble_23.jpg,imgJS/WMN_scramble_15.jpg,imgJS/WMN_scramble_45.jpg,imgJS/WMN_scramble_31.jpg,imgJS/WMN_scramble_5.jpg,imgJS/WMN_scramble_60.jpg	999	999	rsvp_img_15	0	3	1	3	1	5	3	7	2	rsvp_flux	15	13037	0.0-15.0	27	14:13 26-5-2020	
27	2020-05-26 12:13:28	2020-05-26 12:39:35	user7	1	1	EMOREG_S1	2020-05-09 00:00:00	2021-05-10 00:00:00	EMOREG	977.00499999337	<div style="font-size:20px;"><p> Avez-vous vu au moins une femme? </p><p> <strong> Oui [O] / Non [N] </strong></p> </div>	999	78	rsvpAnswFem	0	3	1	3	1	5	3	7	2	html-keyboard-response	16	14016	0.0-16.0	27	14:13 26-5-2020	
27	2020-05-26 12:13:28	2020-05-26 12:39:35	user7	1	1	EMOREG_S1	2020-05-09 00:00:00	2021-05-10 00:00:00	EMOREG	999	999	999	999	fullscreenExp	999	999	999	999	999	999	999	999	999	fullscreen	17	14050	0.0-17.0	27	14:13 26-5-2020	
27	2020-05-26 12:13:28	2020-05-26 12:39:35	user7	1	1	EMOREG_S1	2020-05-09 00:00:00	2021-05-10 00:00:00	EMOREG	999	fixation_cross	999	999	fixation	0	4	1	4	1	7	0	9	1	html-keyboard-response	18	15054	0.0-18.0	27	14:13 26-5-2020	
27	2020-05-26 12:13:28	2020-05-26 12:39:35	user7	1	1	EMOREG_S1	2020-05-09 00:00:00	2021-05-10 00:00:00	EMOREG	999	imgJS/WFF_scramble_10.jpg,imgJS/WFF_scramble_13.jpg,imgJS/WFF_scramble_8.jpg,imgJS/WFF_scramble_26.jpg,imgJS/WFF_scramble_1.jpg,imgJS/WFF_scramble_11.jpg,imgJS/WFF_scramble_9.jpg,imgJS/WFF_2.jpg,imgJS/WFF_scramble_16.jpg,imgJS/WMF_22.jpg,imgJS/WFF_scramble_35.jpg,imgJS/WFF_scramble_29.jpg,imgJS/WFF_scramble_16.jpg,imgJS/WFF_scramble_10.jpg,imgJS/WFF_scramble_31.jpg	999	999	rsvp_img_15	0	4	1	4	1	7	0	9	1	rsvp_flux	19	16109	0.0-19.0	27	14:13 26-5-2020	
27	2020-05-26 12:13:28	2020-05-26 12:39:35	user7	1	1	EMOREG_S1	2020-05-09 00:00:00	2021-05-10 00:00:00	EMOREG	905.32500005793	<div style="font-size:20px;"><p> Avez-vous vu au moins un homme? </p><p> <strong> Oui [O] / Non [N] </strong></p> </div>	999	79	rsvpAnswHom	0	4	1	4	1	7	0	9	1	html-keyboard-response	20	17017	0.0-20.0	27	14:13 26-5-2020	
27	2020-05-26 12:13:28	2020-05-26 12:39:35	user7	1	1	EMOREG_S1	2020-05-09 00:00:00	2021-05-10 00:00:00	EMOREG	999	999	999	999	fullscreenExp	999	999	999	999	999	999	999	999	999	fullscreen	21	17061	0.0-21.0	27	14:13 26-5-2020	
27	2020-05-26 12:13:28	2020-05-26 12:39:35	user7	1	1	EMOREG_S1	2020-05-09 00:00:00	2021-05-10 00:00:00	EMOREG	999	fixation_cross	999	999	fixation	0	5	1	2	1	8	0	10	3	html-keyboard-response	22	18067	0.0-22.0	27	14:13 26-5-2020	
27	2020-05-26 12:13:28	2020-05-26 12:39:35	user7	1	1	EMOREG_S1	2020-05-09 00:00:00	2021-05-10 00:00:00	EMOREG	999	imgJS/WFF_scramble_31.jpg,imgJS/WFF_scramble_32.jpg,imgJS/WFF_scramble_2.jpg,imgJS/WFF_scramble_17.jpg,imgJS/WFF_scramble_27.jpg,imgJS/WFF_scramble_1.jpg,imgJS/WFF_scramble_14.jpg,imgJS/WFF_scramble_11.jpg,imgJS/WFF_2.jpg,imgJS/WFF_scramble_25.jpg,imgJS/WMN_53.jpg,imgJS/WFF_scramble_19.jpg,imgJS/WFF_scramble_4.jpg,imgJS/WFF_scramble_36.jpg,imgJS/WFF_scramble_8.jpg	999	999	rsvp_img_15	0	5	1	2	1	8	0	10	3	rsvp_flux	23	19121	0.0-23.0	27	14:13 26-5-2020	
27	2020-05-26 12:13:28	2020-05-26 12:39:35	user7	1	1	EMOREG_S1	2020-05-09 00:00:00	2021-05-10 00:00:00	EMOREG	1101.9850000739	<div style="font-size:20px;"><p> Avez-vous vu au moins un homme? </p><p> <strong> Oui [O] / Non [N] </strong></p> </div>	999	78	rsvpAnswHom	0	5	1	2	1	8	0	10	3	html-keyboard-response	24	20225	0.0-24.0	27	14:13 26-5-2020	
27	2020-05-26 12:13:28	2020-05-26 12:39:35	user7	1	1	EMOREG_S1	2020-05-09 00:00:00	2021-05-10 00:00:00	EMOREG	999	999	999	999	fullscreenExp	999	999	999	999	999	999	999	999	999	fullscreen	25	20259	0.0-25.0	27	14:13 26-5-2020	
27	2020-05-26 12:13:28	2020-05-26 12:39:35	user7	1	1	EMOREG_S1	2020-05-09 00:00:00	2021-05-10 00:00:00	EMOREG	999	fixation_cross	999	999	fixation	1	0	2	6	2	5	2	7	1	html-keyboard-response	26	21263	0.0-26.0	27	14:13 26-5-2020	
27	2020-05-26 12:13:28	2020-05-26 12:39:35	user7	1	1	EMOREG_S1	2020-05-09 00:00:00	2021-05-10 00:00:00	EMOREG	999	imgJS/WFN_scramble_66.jpg,imgJS/WFN_scramble_46.jpg,imgJS/WFN_scramble_49.jpg,imgJS/WFN_scramble_72.jpg,imgJS/WFN_scramble_26.jpg,imgJS/WFN_25.jpg,imgJS/WFN_scramble_50.jpg,imgJS/WMF_21.jpg,imgJS/WFN_scramble_84.jpg,imgJS/WFN_scramble_71.jpg,imgJS/WFN_scramble_80.jpg,imgJS/WFN_scramble_64.jpg,imgJS/WFN_scramble_6.jpg,imgJS/WFN_scramble_42.jpg,imgJS/WFN_scramble_82.jpg	999	999	rsvp_img_15	1	0	2	6	2	5	2	7	1	rsvp_flux	27	22316	0.0-27.0	27	14:13 26-5-2020	
27	2020-05-26 12:13:28	2020-05-26 12:39:35	user7	1	1	EMOREG_S1	2020-05-09 00:00:00	2021-05-10 00:00:00	EMOREG	620.48000004143	<div style="font-size:20px;"><p> Avez-vous vu au moins un homme? </p><p> <strong> Oui [O] / Non [N] </strong></p> </div>	999	78	rsvpAnswHom	1	0	2	6	2	5	2	7	1	html-keyboard-response	28	22939	0.0-28.0	27	14:13 26-5-2020	
27	2020-05-26 12:13:28	2020-05-26 12:39:35	user7	1	1	EMOREG_S1	2020-05-09 00:00:00	2021-05-10 00:00:00	EMOREG	999	999	999	999	fullscreenExp	999	999	999	999	999	999	999	999	999	fullscreen	29	22972	0.0-29.0	27	14:13 26-5-2020	
27	2020-05-26 12:13:28	2020-05-26 12:39:35	user7	1	1	EMOREG_S1	2020-05-09 00:00:00	2021-05-10 00:00:00	EMOREG	999	fixation_cross	999	999	fixation	1	1	2	6	2	6	2	8	1	html-keyboard-response	30	23977	0.0-30.0	27	14:13 26-5-2020	
27	2020-05-26 12:13:28	2020-05-26 12:39:35	user7	1	1	EMOREG_S1	2020-05-09 00:00:00	2021-05-10 00:00:00	EMOREG	999	imgJS/WFN_scramble_28.jpg,imgJS/WFN_scramble_44.jpg,imgJS/WFN_scramble_74.jpg,imgJS/WFN_scramble_1.jpg,imgJS/WFN_scramble_86.jpg,imgJS/WFN_scramble_79.jpg,imgJS/WFN_39.jpg,imgJS/WFN_scramble_23.jpg,imgJS/WMF_23.jpg,imgJS/WFN_scramble_67.jpg,imgJS/WFN_scramble_34.jpg,imgJS/WFN_scramble_62.jpg,imgJS/WFN_scramble_51.jpg,imgJS/WFN_scramble_48.jpg,imgJS/WFN_scramble_26.jpg	999	999	rsvp_img_15	1	1	2	6	2	6	2	8	1	rsvp_flux	31	25030	0.0-31.0	27	14:13 26-5-2020	
27	2020-05-26 12:13:28	2020-05-26 12:39:35	user7	1	1	EMOREG_S1	2020-05-09 00:00:00	2021-05-10 00:00:00	EMOREG	981.41999996733	<div style="font-size:20px;"><p> Avez-vous vu au moins un homme? </p><p> <strong> Oui [O] / Non [N] </strong></p> </div>	999	79	rsvpAnswHom	1	1	2	6	2	6	2	8	1	html-keyboard-response	32	26014	0.0-32.0	27	14:13 26-5-2020	
27	2020-05-26 12:13:28	2020-05-26 12:39:35	user7	1	1	EMOREG_S1	2020-05-09 00:00:00	2021-05-10 00:00:00	EMOREG	999	999	999	999	fullscreenExp	999	999	999	999	999	999	999	999	999	fullscreen	33	26053	0.0-33.0	27	14:13 26-5-2020	
27	2020-05-26 12:13:28	2020-05-26 12:39:35	user7	1	1	EMOREG_S1	2020-05-09 00:00:00	2021-05-10 00:00:00	EMOREG	999	fixation_cross	999	999	fixation	1	2	2	3	2	6	3	8	3	html-keyboard-response	34	27057	0.0-34.0	27	14:13 26-5-2020	
27	2020-05-26 12:13:28	2020-05-26 12:39:35	user7	1	1	EMOREG_S1	2020-05-09 00:00:00	2021-05-10 00:00:00	EMOREG	999	imgJS/WMN_scramble_70.jpg,imgJS/WMN_scramble_76.jpg,imgJS/WMN_scramble_76.jpg,imgJS/WMN_scramble_72.jpg,imgJS/WMN_scramble_40.jpg,imgJS/WMN_scramble_44.jpg,imgJS/WMN_16.jpg,imgJS/WMN_scramble_4.jpg,imgJS/WMN_76.jpg,imgJS/WMN_scramble_26.jpg,imgJS/WMN_scramble_90.jpg,imgJS/WMN_scramble_41.jpg,imgJS/WMN_scramble_8.jpg,imgJS/WMN_scramble_39.jpg,imgJS/WMN_scramble_56.jpg	999	999	rsvp_img_15	1	2	2	3	2	6	3	8	3	rsvp_flux	35	28112	0.0-35.0	27	14:13 26-5-2020	
27	2020-05-26 12:13:28	2020-05-26 12:39:35	user7	1	1	EMOREG_S1	2020-05-09 00:00:00	2021-05-10 00:00:00	EMOREG	1900.1050000079	<div style="font-size:20px;"><p> Avez-vous vu au moins une femme? </p><p> <strong> Oui [O] / Non [N] </strong></p> </div>	999	78	rsvpAnswFem	1	2	2	3	2	6	3	8	3	html-keyboard-response	36	30014	0.0-36.0	27	14:13 26-5-2020	
27	2020-05-26 12:13:28	2020-05-26 12:39:35	user7	1	1	EMOREG_S1	2020-05-09 00:00:00	2021-05-10 00:00:00	EMOREG	999	999	999	999	fullscreenExp	999	999	999	999	999	999	999	999	999	fullscreen	37	30048	0.0-37.0	27	14:13 26-5-2020	
27	2020-05-26 12:13:28	2020-05-26 12:39:35	user7	1	1	EMOREG_S1	2020-05-09 00:00:00	2021-05-10 00:00:00	EMOREG	999	fixation_cross	999	999	fixation	1	3	2	5	2	4	3	6	1	html-keyboard-response	38	31052	0.0-38.0	27	14:13 26-5-2020	
27	2020-05-26 12:13:28	2020-05-26 12:39:35	user7	1	1	EMOREG_S1	2020-05-09 00:00:00	2021-05-10 00:00:00	EMOREG	999	imgJS/WMN_scramble_73.jpg,imgJS/WMN_scramble_4.jpg,imgJS/WMN_scramble_88.jpg,imgJS/WMN_scramble_52.jpg,imgJS/WMN_6.jpg,imgJS/WMN_scramble_6.jpg,imgJS/WMF_25.jpg,imgJS/WMN_scramble_62.jpg,imgJS/WMN_scramble_5.jpg,imgJS/WMN_scramble_75.jpg,imgJS/WMN_scramble_28.jpg,imgJS/WMN_scramble_89.jpg,imgJS/WMN_scramble_46.jpg,imgJS/WMN_scramble_26.jpg,imgJS/WMN_scramble_68.jpg	999	999	rsvp_img_15	1	3	2	5	2	4	3	6	1	rsvp_flux	39	32106	0.0-39.0	27	14:13 26-5-2020	
27	2020-05-26 12:13:28	2020-05-26 12:39:35	user7	1	1	EMOREG_S1	2020-05-09 00:00:00	2021-05-10 00:00:00	EMOREG	2535.1650000084	<div style="font-size:20px;"><p> Avez-vous vu au moins une femme? </p><p> <strong> Oui [O] / Non [N] </strong></p> </div>	999	78	rsvpAnswFem	1	3	2	5	2	4	3	6	1	html-keyboard-response	40	34643	0.0-40.0	27	14:13 26-5-2020	
27	2020-05-26 12:13:28	2020-05-26 12:39:35	user7	1	1	EMOREG_S1	2020-05-09 00:00:00	2021-05-10 00:00:00	EMOREG	999	999	999	999	fullscreenExp	999	999	999	999	999	999	999	999	999	fullscreen	41	35863	0.0-41.0	27	14:13 26-5-2020	
27	2020-05-26 12:13:28	2020-05-26 12:39:35	user7	1	1	EMOREG_S1	2020-05-09 00:00:00	2021-05-10 00:00:00	EMOREG	999	fixation_cross	999	999	fixation	1	4	2	5	2	7	3	11	1	html-keyboard-response	42	36867	0.0-42.0	27	14:13 26-5-2020	
27	2020-05-26 12:13:28	2020-05-26 12:39:35	user7	1	1	EMOREG_S1	2020-05-09 00:00:00	2021-05-10 00:00:00	EMOREG	999	imgJS/WMN_scramble_46.jpg,imgJS/WMN_scramble_49.jpg,imgJS/WMN_scramble_48.jpg,imgJS/WMN_scramble_62.jpg,imgJS/WMN_scramble_55.jpg,imgJS/WMN_scramble_12.jpg,imgJS/WMN_scramble_67.jpg,imgJS/WMN_23.jpg,imgJS/WMN_scramble_16.jpg,imgJS/WMN_scramble_20.jpg,imgJS/WMN_scramble_20.jpg,imgJS/WMF_5.jpg,imgJS/WMN_scramble_21.jpg,imgJS/WMN_scramble_18.jpg,imgJS/WMN_scramble_32.jpg	999	999	rsvp_img_15	1	4	2	5	2	7	3	11	1	rsvp_flux	43	37921	0.0-43.0	27	14:13 26-5-2020	
27	2020-05-26 12:13:28	2020-05-26 12:39:35	user7	1	1	EMOREG_S1	2020-05-09 00:00:00	2021-05-10 00:00:00	EMOREG	831.47999993525	<div style="font-size:20px;"><p> Avez-vous vu au moins une femme? </p><p> <strong> Oui [O] / Non [N] </strong></p> </div>	999	78	rsvpAnswFem	1	4	2	5	2	7	3	11	1	html-keyboard-response	44	38755	0.0-44.0	27	14:13 26-5-2020	
27	2020-05-26 12:13:28	2020-05-26 12:39:35	user7	1	1	EMOREG_S1	2020-05-09 00:00:00	2021-05-10 00:00:00	EMOREG	999	999	999	999	fullscreenExp	999	999	999	999	999	999	999	999	999	fullscreen	45	38787	0.0-45.0	27	14:13 26-5-2020	
27	2020-05-26 12:13:28	2020-05-26 12:39:35	user7	1	1	EMOREG_S1	2020-05-09 00:00:00	2021-05-10 00:00:00	EMOREG	999	fixation_cross	999	999	fixation	1	5	2	4	2	7	2	9	3	html-keyboard-response	46	39792	0.0-46.0	27	14:13 26-5-2020	
27	2020-05-26 12:13:28	2020-05-26 12:39:35	user7	1	1	EMOREG_S1	2020-05-09 00:00:00	2021-05-10 00:00:00	EMOREG	999	imgJS/WFN_scramble_58.jpg,imgJS/WFN_scramble_71.jpg,imgJS/WFN_scramble_54.jpg,imgJS/WFN_scramble_84.jpg,imgJS/WFN_scramble_3.jpg,imgJS/WFN_scramble_29.jpg,imgJS/WFN_scramble_28.jpg,imgJS/WFN_61.jpg,imgJS/WFN_scramble_29.jpg,imgJS/WMN_73.jpg,imgJS/WFN_scramble_35.jpg,imgJS/WFN_scramble_37.jpg,imgJS/WFN_scramble_73.jpg,imgJS/WFN_scramble_5.jpg,imgJS/WFN_scramble_68.jpg	999	999	rsvp_img_15	1	5	2	4	2	7	2	9	3	rsvp_flux	47	40845	0.0-47.0	27	14:13 26-5-2020	
27	2020-05-26 12:13:28	2020-05-26 12:39:35	user7	1	1	EMOREG_S1	2020-05-09 00:00:00	2021-05-10 00:00:00	EMOREG	463.42499996535	<div style="font-size:20px;"><p> Avez-vous vu au moins un homme? </p><p> <strong> Oui [O] / Non [N] </strong></p> </div>	999	78	rsvpAnswHom	1	5	2	4	2	7	2	9	3	html-keyboard-response	48	41311	0.0-48.0	27	14:13 26-5-2020	
27	2020-05-26 12:13:28	2020-05-26 12:39:35	user7	1	1	EMOREG_S1	2020-05-09 00:00:00	2021-05-10 00:00:00	EMOREG	999	999	999	999	fullscreenExp	999	999	999	999	999	999	999	999	999	fullscreen	49	41346	0.0-49.0	27	14:13 26-5-2020	
27	2020-05-26 12:13:28	2020-05-26 12:39:35	user7	1	1	EMOREG_S1	2020-05-09 00:00:00	2021-05-10 00:00:00	EMOREG	999	999	999	999	fullscreenExp	999	999	999	999	999	999	999	999	999	fullscreen	50	41351	0.0-50.0	27	14:13 26-5-2020	
27	2020-05-26 12:13:28	2020-05-26 12:39:35	user7	1	1	EMOREG_S1	2020-05-09 00:00:00	2021-05-10 00:00:00	EMOREG	999	instructions/instructionsDiapo/Slide7.jpg	999	999	instr	999	999	999	999	999	999	999	999	999	image-keyboard-response	51	42601	0.0-51.0	27	14:13 26-5-2020	
27	2020-05-26 12:13:28	2020-05-26 12:39:35	user7	1	1	EMOREG_S1	2020-05-09 00:00:00	2021-05-10 00:00:00	EMOREG	999	instructions/instructionsDiapo/Slide8.jpg	999	999	instrCondi	0	999			1	999	999	999	999	image-keyboard-response	52	44073	0.0-52.0	27	14:13 26-5-2020	
27	2020-05-26 12:13:28	2020-05-26 12:39:35	user7	1	1	EMOREG_S1	2020-05-09 00:00:00	2021-05-10 00:00:00	EMOREG	999	fixation_cross	999	999	fixation	0	0	1	2	1	4	0	6	2	html-keyboard-response	53	45077	0.0-53.0	27	14:13 26-5-2020	
27	2020-05-26 12:13:28	2020-05-26 12:39:35	user7	1	1	EMOREG_S1	2020-05-09 00:00:00	2021-05-10 00:00:00	EMOREG	999	imgJS/WFF_scramble_12.jpg,imgJS/WFF_scramble_17.jpg,imgJS/WFF_scramble_31.jpg,imgJS/WFF_scramble_9.jpg,imgJS/WFF_2.jpg,imgJS/WFF_scramble_31.jpg,imgJS/WFN_57.jpg,imgJS/WFF_scramble_2.jpg,imgJS/WFF_scramble_8.jpg,imgJS/WFF_scramble_29.jpg,imgJS/WFF_scramble_4.jpg,imgJS/WFF_scramble_34.jpg,imgJS/WFF_scramble_10.jpg,imgJS/WFF_scramble_15.jpg,imgJS/WFF_scramble_29.jpg	999	999	rsvp_img_15	0	0	1	2	1	4	0	6	2	rsvp_flux	54	46131	0.0-54.0	27	14:13 26-5-2020	
27	2020-05-26 12:13:28	2020-05-26 12:39:35	user7	1	1	EMOREG_S1	2020-05-09 00:00:00	2021-05-10 00:00:00	EMOREG	676.31499993149	<div style="font-size:20px;"><p> Avez-vous vu au moins un homme? </p><p> <strong> Oui [O] / Non [N] </strong></p> </div>	999	78	rsvpAnswHom	0	0	1	2	1	4	0	6	2	html-keyboard-response	55	46810	0.0-55.0	27	14:13 26-5-2020	
27	2020-05-26 12:13:28	2020-05-26 12:39:35	user7	1	1	EMOREG_S1	2020-05-09 00:00:00	2021-05-10 00:00:00	EMOREG	999	999	999	999	fullscreenExp	999	999	999	999	999	999	999	999	999	fullscreen	56	46852	0.0-56.0	27	14:13 26-5-2020	
27	2020-05-26 12:13:28	2020-05-26 12:39:35	user7	1	1	EMOREG_S1	2020-05-09 00:00:00	2021-05-10 00:00:00	EMOREG	999	fixation_cross	999	999	fixation	0	1	1	3	1	5	3	9	3	html-keyboard-response	57	47857	0.0-57.0	27	14:13 26-5-2020	
27	2020-05-26 12:13:28	2020-05-26 12:39:35	user7	1	1	EMOREG_S1	2020-05-09 00:00:00	2021-05-10 00:00:00	EMOREG	999	imgJS/WMN_scramble_8.jpg,imgJS/WMN_scramble_31.jpg,imgJS/WMN_scramble_81.jpg,imgJS/WMN_scramble_1.jpg,imgJS/WMN_scramble_77.jpg,imgJS/WMN_5.jpg,imgJS/WMN_scramble_23.jpg,imgJS/WMN_scramble_44.jpg,imgJS/WMN_scramble_73.jpg,imgJS/WMN_59.jpg,imgJS/WMN_scramble_88.jpg,imgJS/WMN_scramble_72.jpg,imgJS/WMN_scramble_74.jpg,imgJS/WMN_scramble_25.jpg,imgJS/WMN_scramble_74.jpg	999	999	rsvp_img_15	0	1	1	3	1	5	3	9	3	rsvp_flux	58	48911	0.0-58.0	27	14:13 26-5-2020	
27	2020-05-26 12:13:28	2020-05-26 12:39:35	user7	1	1	EMOREG_S1	2020-05-09 00:00:00	2021-05-10 00:00:00	EMOREG	758.29000002705	<div style="font-size:20px;"><p> Avez-vous vu au moins une femme? </p><p> <strong> Oui [O] / Non [N] </strong></p> </div>	999	78	rsvpAnswFem	0	1	1	3	1	5	3	9	3	html-keyboard-response	59	49672	0.0-59.0	27	14:13 26-5-2020	
27	2020-05-26 12:13:28	2020-05-26 12:39:35	user7	1	1	EMOREG_S1	2020-05-09 00:00:00	2021-05-10 00:00:00	EMOREG	999	999	999	999	fullscreenExp	999	999	999	999	999	999	999	999	999	fullscreen	60	49705	0.0-60.0	27	14:13 26-5-2020	
27	2020-05-26 12:13:28	2020-05-26 12:39:35	user7	1	1	EMOREG_S1	2020-05-09 00:00:00	2021-05-10 00:00:00	EMOREG	999	fixation_cross	999	999	fixation	0	2	1	1	1	5	1	9	2	html-keyboard-response	61	50710	0.0-61.0	27	14:13 26-5-2020	
27	2020-05-26 12:13:28	2020-05-26 12:39:35	user7	1	1	EMOREG_S1	2020-05-09 00:00:00	2021-05-10 00:00:00	EMOREG	999	imgJS/WMF_scramble_11.jpg,imgJS/WMF_scramble_6.jpg,imgJS/WMF_scramble_13.jpg,imgJS/WMF_scramble_9.jpg,imgJS/WMF_scramble_18.jpg,imgJS/WMF_10.jpg,imgJS/WMF_scramble_15.jpg,imgJS/WMF_scramble_7.jpg,imgJS/WMF_scramble_3.jpg,imgJS/WFN_35.jpg,imgJS/WMF_scramble_24.jpg,imgJS/WMF_scramble_4.jpg,imgJS/WMF_scramble_5.jpg,imgJS/WMF_scramble_14.jpg,imgJS/WMF_scramble_6.jpg	999	999	rsvp_img_15	0	2	1	1	1	5	1	9	2	rsvp_flux	62	51764	0.0-62.0	27	14:13 26-5-2020	
27	2020-05-26 12:13:28	2020-05-26 12:39:35	user7	1	1	EMOREG_S1	2020-05-09 00:00:00	2021-05-10 00:00:00	EMOREG	1022.3450000631	<div style="font-size:20px;"><p> Avez-vous vu au moins une femme? </p><p> <strong> Oui [O] / Non [N] </strong></p> </div>	999	79	rsvpAnswFem	0	2	1	1	1	5	1	9	2	html-keyboard-response	63	52789	0.0-63.0	27	14:13 26-5-2020	
27	2020-05-26 12:13:28	2020-05-26 12:39:35	user7	1	1	EMOREG_S1	2020-05-09 00:00:00	2021-05-10 00:00:00	EMOREG	999	999	999	999	fullscreenExp	999	999	999	999	999	999	999	999	999	fullscreen	64	52822	0.0-64.0	27	14:13 26-5-2020	
27	2020-05-26 12:13:28	2020-05-26 12:39:35	user7	1	1	EMOREG_S1	2020-05-09 00:00:00	2021-05-10 00:00:00	EMOREG	999	fixation_cross	999	999	fixation	0	3	1	2	1	8	0	12	3	html-keyboard-response	65	53827	0.0-65.0	27	14:13 26-5-2020	
27	2020-05-26 12:13:28	2020-05-26 12:39:35	user7	1	1	EMOREG_S1	2020-05-09 00:00:00	2021-05-10 00:00:00	EMOREG	999	imgJS/WFF_scramble_25.jpg,imgJS/WFF_scramble_7.jpg,imgJS/WFF_scramble_9.jpg,imgJS/WFF_scramble_35.jpg,imgJS/WFF_scramble_30.jpg,imgJS/WFF_scramble_15.jpg,imgJS/WFF_scramble_21.jpg,imgJS/WFF_scramble_19.jpg,imgJS/WFF_3.jpg,imgJS/WFF_scramble_2.jpg,imgJS/WFF_scramble_23.jpg,imgJS/WFF_scramble_19.jpg,imgJS/WMN_18.jpg,imgJS/WFF_scramble_24.jpg,imgJS/WFF_scramble_10.jpg	999	999	rsvp_img_15	0	3	1	2	1	8	0	12	3	rsvp_flux	66	54881	0.0-66.0	27	14:13 26-5-2020	
27	2020-05-26 12:13:28	2020-05-26 12:39:35	user7	1	1	EMOREG_S1	2020-05-09 00:00:00	2021-05-10 00:00:00	EMOREG	1110.2350000292	<div style="font-size:20px;"><p> Avez-vous vu au moins un homme? </p><p> <strong> Oui [O] / Non [N] </strong></p> </div>	999	79	rsvpAnswHom	0	3	1	2	1	8	0	12	3	html-keyboard-response	67	55994	0.0-67.0	27	14:13 26-5-2020	
27	2020-05-26 12:13:28	2020-05-26 12:39:35	user7	1	1	EMOREG_S1	2020-05-09 00:00:00	2021-05-10 00:00:00	EMOREG	999	999	999	999	fullscreenExp	999	999	999	999	999	999	999	999	999	fullscreen	68	56027	0.0-68.0	27	14:13 26-5-2020	
27	2020-05-26 12:13:28	2020-05-26 12:39:35	user7	1	1	EMOREG_S1	2020-05-09 00:00:00	2021-05-10 00:00:00	EMOREG	999	fixation_cross	999	999	fixation	0	4	1	3	1	5	3	7	3	html-keyboard-response	69	57031	0.0-69.0	27	14:13 26-5-2020	
27	2020-05-26 12:13:28	2020-05-26 12:39:35	user7	1	1	EMOREG_S1	2020-05-09 00:00:00	2021-05-10 00:00:00	EMOREG	999	imgJS/WMN_scramble_7.jpg,imgJS/WMN_scramble_29.jpg,imgJS/WMN_scramble_89.jpg,imgJS/WMN_scramble_74.jpg,imgJS/WMN_scramble_30.jpg,imgJS/WMN_79.jpg,imgJS/WMN_scramble_31.jpg,imgJS/WMN_18.jpg,imgJS/WMN_scramble_78.jpg,imgJS/WMN_scramble_27.jpg,imgJS/WMN_scramble_19.jpg,imgJS/WMN_scramble_52.jpg,imgJS/WMN_scramble_9.jpg,imgJS/WMN_scramble_14.jpg,imgJS/WMN_scramble_75.jpg	999	999	rsvp_img_15	0	4	1	3	1	5	3	7	3	rsvp_flux	70	58085	0.0-70.0	27	14:13 26-5-2020	
27	2020-05-26 12:13:28	2020-05-26 12:39:35	user7	1	1	EMOREG_S1	2020-05-09 00:00:00	2021-05-10 00:00:00	EMOREG	1182.2599999141	<div style="font-size:20px;"><p> Avez-vous vu au moins une femme? </p><p> <strong> Oui [O] / Non [N] </strong></p> </div>	999	79	rsvpAnswFem	0	4	1	3	1	5	3	7	3	html-keyboard-response	71	59269	0.0-71.0	27	14:13 26-5-2020	
27	2020-05-26 12:13:28	2020-05-26 12:39:35	user7	1	1	EMOREG_S1	2020-05-09 00:00:00	2021-05-10 00:00:00	EMOREG	999	999	999	999	fullscreenExp	999	999	999	999	999	999	999	999	999	fullscreen	72	59303	0.0-72.0	27	14:13 26-5-2020	
27	2020-05-26 12:13:28	2020-05-26 12:39:35	user7	1	1	EMOREG_S1	2020-05-09 00:00:00	2021-05-10 00:00:00	EMOREG	999	fixation_cross	999	999	fixation	0	5	1	1	1	7	1	9	2	html-keyboard-response	73	60307	0.0-73.0	27	14:13 26-5-2020	
27	2020-05-26 12:13:28	2020-05-26 12:39:35	user7	1	1	EMOREG_S1	2020-05-09 00:00:00	2021-05-10 00:00:00	EMOREG	999	imgJS/WMF_scramble_7.jpg,imgJS/WMF_scramble_7.jpg,imgJS/WMF_scramble_24.jpg,imgJS/WMF_scramble_15.jpg,imgJS/WMF_scramble_8.jpg,imgJS/WMF_scramble_28.jpg,imgJS/WMF_scramble_12.jpg,imgJS/WMF_3.jpg,imgJS/WMF_scramble_23.jpg,imgJS/WFN_70.jpg,imgJS/WMF_scramble_12.jpg,imgJS/WMF_scramble_6.jpg,imgJS/WMF_scramble_14.jpg,imgJS/WMF_scramble_21.jpg,imgJS/WMF_scramble_22.jpg	999	999	rsvp_img_15	0	5	1	1	1	7	1	9	2	rsvp_flux	74	61361	0.0-74.0	27	14:13 26-5-2020	
27	2020-05-26 12:13:28	2020-05-26 12:39:35	user7	1	1	EMOREG_S1	2020-05-09 00:00:00	2021-05-10 00:00:00	EMOREG	893.39500002097	<div style="font-size:20px;"><p> Avez-vous vu au moins une femme? </p><p> <strong> Oui [O] / Non [N] </strong></p> </div>	999	78	rsvpAnswFem	0	5	1	1	1	7	1	9	2	html-keyboard-response	75	62258	0.0-75.0	27	14:13 26-5-2020	
27	2020-05-26 12:13:28	2020-05-26 12:39:35	user7	1	1	EMOREG_S1	2020-05-09 00:00:00	2021-05-10 00:00:00	EMOREG	999	999	999	999	fullscreenExp	999	999	999	999	999	999	999	999	999	fullscreen	76	62291	0.0-76.0	27	14:13 26-5-2020	
27	2020-05-26 12:13:28	2020-05-26 12:39:35	user7	1	1	EMOREG_S1	2020-05-09 00:00:00	2021-05-10 00:00:00	EMOREG	999	fixation_cross	999	999	fixation	0	6	1	2	1	4	0	8	2	html-keyboard-response	77	63295	0.0-77.0	27	14:13 26-5-2020	
27	2020-05-26 12:13:28	2020-05-26 12:39:35	user7	1	1	EMOREG_S1	2020-05-09 00:00:00	2021-05-10 00:00:00	EMOREG	999	imgJS/WFF_scramble_15.jpg,imgJS/WFF_scramble_18.jpg,imgJS/WFF_scramble_17.jpg,imgJS/WFF_scramble_18.jpg,imgJS/WFF_25.jpg,imgJS/WFF_scramble_2.jpg,imgJS/WFF_scramble_6.jpg,imgJS/WFF_scramble_14.jpg,imgJS/WFN_27.jpg,imgJS/WFF_scramble_3.jpg,imgJS/WFF_scramble_19.jpg,imgJS/WFF_scramble_30.jpg,imgJS/WFF_scramble_6.jpg,imgJS/WFF_scramble_21.jpg,imgJS/WFF_scramble_31.jpg	999	999	rsvp_img_15	0	6	1	2	1	4	0	8	2	rsvp_flux	78	64350	0.0-78.0	27	14:13 26-5-2020	
27	2020-05-26 12:13:28	2020-05-26 12:39:35	user7	1	1	EMOREG_S1	2020-05-09 00:00:00	2021-05-10 00:00:00	EMOREG	616.43499997444	<div style="font-size:20px;"><p> Avez-vous vu au moins un homme? </p><p> <strong> Oui [O] / Non [N] </strong></p> </div>	999	78	rsvpAnswHom	0	6	1	2	1	4	0	8	2	html-keyboard-response	79	64969	0.0-79.0	27	14:13 26-5-2020	
27	2020-05-26 12:13:28	2020-05-26 12:39:35	user7	1	1	EMOREG_S1	2020-05-09 00:00:00	2021-05-10 00:00:00	EMOREG	999	999	999	999	fullscreenExp	999	999	999	999	999	999	999	999	999	fullscreen	80	65007	0.0-80.0	27	14:13 26-5-2020	
27	2020-05-26 12:13:28	2020-05-26 12:39:35	user7	1	1	EMOREG_S1	2020-05-09 00:00:00	2021-05-10 00:00:00	EMOREG	999	fixation_cross	999	999	fixation	0	7	1	1	1	8	1	10	2	html-keyboard-response	81	66010	0.0-81.0	27	14:13 26-5-2020	
27	2020-05-26 12:13:28	2020-05-26 12:39:35	user7	1	1	EMOREG_S1	2020-05-09 00:00:00	2021-05-10 00:00:00	EMOREG	999	imgJS/WMF_scramble_20.jpg,imgJS/WMF_scramble_8.jpg,imgJS/WMF_scramble_11.jpg,imgJS/WMF_scramble_9.jpg,imgJS/WMF_scramble_18.jpg,imgJS/WMF_scramble_16.jpg,imgJS/WMF_scramble_6.jpg,imgJS/WMF_scramble_1.jpg,imgJS/WMF_11.jpg,imgJS/WMF_scramble_7.jpg,imgJS/WFN_4.jpg,imgJS/WMF_scramble_2.jpg,imgJS/WMF_scramble_5.jpg,imgJS/WMF_scramble_29.jpg,imgJS/WMF_scramble_12.jpg	999	999	rsvp_img_15	0	7	1	1	1	8	1	10	2	rsvp_flux	82	67063	0.0-82.0	27	14:13 26-5-2020	
27	2020-05-26 12:13:28	2020-05-26 12:39:35	user7	1	1	EMOREG_S1	2020-05-09 00:00:00	2021-05-10 00:00:00	EMOREG	622.83999996725	<div style="font-size:20px;"><p> Avez-vous vu au moins une femme? </p><p> <strong> Oui [O] / Non [N] </strong></p> </div>	999	79	rsvpAnswFem	0	7	1	1	1	8	1	10	2	html-keyboard-response	83	67688	0.0-83.0	27	14:13 26-5-2020	
27	2020-05-26 12:13:28	2020-05-26 12:39:35	user7	1	1	EMOREG_S1	2020-05-09 00:00:00	2021-05-10 00:00:00	EMOREG	999	999	999	999	fullscreenExp	999	999	999	999	999	999	999	999	999	fullscreen	84	67738	0.0-84.0	27	14:13 26-5-2020	
27	2020-05-26 12:13:28	2020-05-26 12:39:35	user7	1	1	EMOREG_S1	2020-05-09 00:00:00	2021-05-10 00:00:00	EMOREG	999	fixation_cross	999	999	fixation	0	8	1	2	1	5	0	7	2	html-keyboard-response	85	68743	0.0-85.0	27	14:13 26-5-2020	
27	2020-05-26 12:13:28	2020-05-26 12:39:35	user7	1	1	EMOREG_S1	2020-05-09 00:00:00	2021-05-10 00:00:00	EMOREG	999	imgJS/WFF_scramble_16.jpg,imgJS/WFF_scramble_5.jpg,imgJS/WFF_scramble_9.jpg,imgJS/WFF_scramble_5.jpg,imgJS/WFF_scramble_32.jpg,imgJS/WFF_23.jpg,imgJS/WFF_scramble_19.jpg,imgJS/WFN_56.jpg,imgJS/WFF_scramble_12.jpg,imgJS/WFF_scramble_34.jpg,imgJS/WFF_scramble_34.jpg,imgJS/WFF_scramble_20.jpg,imgJS/WFF_scramble_11.jpg,imgJS/WFF_scramble_15.jpg,imgJS/WFF_scramble_24.jpg	999	999	rsvp_img_15	0	8	1	2	1	5	0	7	2	rsvp_flux	86	69796	0.0-86.0	27	14:13 26-5-2020	
27	2020-05-26 12:13:28	2020-05-26 12:39:35	user7	1	1	EMOREG_S1	2020-05-09 00:00:00	2021-05-10 00:00:00	EMOREG	756.26000005286	<div style="font-size:20px;"><p> Avez-vous vu au moins un homme? </p><p> <strong> Oui [O] / Non [N] </strong></p> </div>	999	78	rsvpAnswHom	0	8	1	2	1	5	0	7	2	html-keyboard-response	87	70556	0.0-87.0	27	14:13 26-5-2020	
27	2020-05-26 12:13:28	2020-05-26 12:39:35	user7	1	1	EMOREG_S1	2020-05-09 00:00:00	2021-05-10 00:00:00	EMOREG	999	999	999	999	fullscreenExp	999	999	999	999	999	999	999	999	999	fullscreen	88	70591	0.0-88.0	27	14:13 26-5-2020	
27	2020-05-26 12:13:28	2020-05-26 12:39:35	user7	1	1	EMOREG_S1	2020-05-09 00:00:00	2021-05-10 00:00:00	EMOREG	999	fixation_cross	999	999	fixation	0	9	1	4	1	6	2	8	3	html-keyboard-response	89	71595	0.0-89.0	27	14:13 26-5-2020	
27	2020-05-26 12:13:28	2020-05-26 12:39:35	user7	1	1	EMOREG_S1	2020-05-09 00:00:00	2021-05-10 00:00:00	EMOREG	999	imgJS/WFN_scramble_5.jpg,imgJS/WFN_scramble_74.jpg,imgJS/WFN_scramble_78.jpg,imgJS/WFN_scramble_81.jpg,imgJS/WFN_scramble_81.jpg,imgJS/WFN_scramble_73.jpg,imgJS/WFN_6.jpg,imgJS/WFN_scramble_29.jpg,imgJS/WMN_47.jpg,imgJS/WFN_scramble_35.jpg,imgJS/WFN_scramble_76.jpg,imgJS/WFN_scramble_50.jpg,imgJS/WFN_scramble_18.jpg,imgJS/WFN_scramble_22.jpg,imgJS/WFN_scramble_75.jpg	999	999	rsvp_img_15	0	9	1	4	1	6	2	8	3	rsvp_flux	90	72648	0.0-90.0	27	14:13 26-5-2020	
27	2020-05-26 12:13:28	2020-05-26 12:39:35	user7	1	1	EMOREG_S1	2020-05-09 00:00:00	2021-05-10 00:00:00	EMOREG	1336.8949999567	<div style="font-size:20px;"><p> Avez-vous vu au moins un homme? </p><p> <strong> Oui [O] / Non [N] </strong></p> </div>	999	79	rsvpAnswHom	0	9	1	4	1	6	2	8	3	html-keyboard-response	91	73987	0.0-91.0	27	14:13 26-5-2020	
27	2020-05-26 12:13:28	2020-05-26 12:39:35	user7	1	1	EMOREG_S1	2020-05-09 00:00:00	2021-05-10 00:00:00	EMOREG	999	999	999	999	fullscreenExp	999	999	999	999	999	999	999	999	999	fullscreen	92	74021	0.0-92.0	27	14:13 26-5-2020	
27	2020-05-26 12:13:28	2020-05-26 12:39:35	user7	1	1	EMOREG_S1	2020-05-09 00:00:00	2021-05-10 00:00:00	EMOREG	999	fixation_cross	999	999	fixation	0	10	1	2	1	8	0	12	3	html-keyboard-response	93	75025	0.0-93.0	27	14:13 26-5-2020	
27	2020-05-26 12:13:28	2020-05-26 12:39:35	user7	1	1	EMOREG_S1	2020-05-09 00:00:00	2021-05-10 00:00:00	EMOREG	999	imgJS/WFF_scramble_17.jpg,imgJS/WFF_scramble_30.jpg,imgJS/WFF_scramble_13.jpg,imgJS/WFF_scramble_16.jpg,imgJS/WFF_scramble_35.jpg,imgJS/WFF_scramble_34.jpg,imgJS/WFF_scramble_20.jpg,imgJS/WFF_scramble_26.jpg,imgJS/WFF_19.jpg,imgJS/WFF_scramble_17.jpg,imgJS/WFF_scramble_4.jpg,imgJS/WFF_scramble_32.jpg,imgJS/WMN_28.jpg,imgJS/WFF_scramble_19.jpg,imgJS/WFF_scramble_5.jpg	999	999	rsvp_img_15	0	10	1	2	1	8	0	12	3	rsvp_flux	94	76079	0.0-94.0	27	14:13 26-5-2020	
27	2020-05-26 12:13:28	2020-05-26 12:39:35	user7	1	1	EMOREG_S1	2020-05-09 00:00:00	2021-05-10 00:00:00	EMOREG	717.93000004254	<div style="font-size:20px;"><p> Avez-vous vu au moins un homme? </p><p> <strong> Oui [O] / Non [N] </strong></p> </div>	999	79	rsvpAnswHom	0	10	1	2	1	8	0	12	3	html-keyboard-response	95	76799	0.0-95.0	27	14:13 26-5-2020	
27	2020-05-26 12:13:28	2020-05-26 12:39:35	user7	1	1	EMOREG_S1	2020-05-09 00:00:00	2021-05-10 00:00:00	EMOREG	999	999	999	999	fullscreenExp	999	999	999	999	999	999	999	999	999	fullscreen	96	76847	0.0-96.0	27	14:13 26-5-2020	
27	2020-05-26 12:13:28	2020-05-26 12:39:35	user7	1	1	EMOREG_S1	2020-05-09 00:00:00	2021-05-10 00:00:00	EMOREG	999	fixation_cross	999	999	fixation	0	11	1	4	1	4	2	6	2	html-keyboard-response	97	77852	0.0-97.0	27	14:13 26-5-2020	
27	2020-05-26 12:13:28	2020-05-26 12:39:35	user7	1	1	EMOREG_S1	2020-05-09 00:00:00	2021-05-10 00:00:00	EMOREG	999	imgJS/WFN_scramble_15.jpg,imgJS/WFN_scramble_8.jpg,imgJS/WFN_scramble_20.jpg,imgJS/WFN_scramble_49.jpg,imgJS/WFN_21.jpg,imgJS/WFN_scramble_29.jpg,imgJS/WFN_56.jpg,imgJS/WFN_scramble_25.jpg,imgJS/WFN_scramble_10.jpg,imgJS/WFN_scramble_43.jpg,imgJS/WFN_scramble_42.jpg,imgJS/WFN_scramble_20.jpg,imgJS/WFN_scramble_24.jpg,imgJS/WFN_scramble_2.jpg,imgJS/WFN_scramble_12.jpg	999	999	rsvp_img_15	0	11	1	4	1	4	2	6	2	rsvp_flux	98	78906	0.0-98.0	27	14:13 26-5-2020	
27	2020-05-26 12:13:28	2020-05-26 12:39:35	user7	1	1	EMOREG_S1	2020-05-09 00:00:00	2021-05-10 00:00:00	EMOREG	975.46000010334	<div style="font-size:20px;"><p> Avez-vous vu au moins un homme? </p><p> <strong> Oui [O] / Non [N] </strong></p> </div>	999	78	rsvpAnswHom	0	11	1	4	1	4	2	6	2	html-keyboard-response	99	79886	0.0-99.0	27	14:13 26-5-2020	
27	2020-05-26 12:13:28	2020-05-26 12:39:35	user7	1	1	EMOREG_S1	2020-05-09 00:00:00	2021-05-10 00:00:00	EMOREG	999	999	999	999	fullscreenExp	999	999	999	999	999	999	999	999	999	fullscreen	100	79919	0.0-100.0	27	14:13 26-5-2020	
27	2020-05-26 12:13:28	2020-05-26 12:39:35	user7	1	1	EMOREG_S1	2020-05-09 00:00:00	2021-05-10 00:00:00	EMOREG	999	fixation_cross	999	999	fixation	0	12	1	1	1	8	1	10	3	html-keyboard-response	101	80923	0.0-101.0	27	14:13 26-5-2020	
27	2020-05-26 12:13:28	2020-05-26 12:39:35	user7	1	1	EMOREG_S1	2020-05-09 00:00:00	2021-05-10 00:00:00	EMOREG	999	imgJS/WMF_scramble_24.jpg,imgJS/WMF_scramble_25.jpg,imgJS/WMF_scramble_11.jpg,imgJS/WMF_scramble_29.jpg,imgJS/WMF_scramble_15.jpg,imgJS/WMF_scramble_19.jpg,imgJS/WMF_scramble_4.jpg,imgJS/WMF_scramble_8.jpg,imgJS/WMF_3.jpg,imgJS/WMF_scramble_8.jpg,imgJS/WMN_31.jpg,imgJS/WMF_scramble_10.jpg,imgJS/WMF_scramble_9.jpg,imgJS/WMF_scramble_26.jpg,imgJS/WMF_scramble_3.jpg	999	999	rsvp_img_15	0	12	1	1	1	8	1	10	3	rsvp_flux	102	81976	0.0-102.0	27	14:13 26-5-2020	
27	2020-05-26 12:13:28	2020-05-26 12:39:35	user7	1	1	EMOREG_S1	2020-05-09 00:00:00	2021-05-10 00:00:00	EMOREG	872.71999998484	<div style="font-size:20px;"><p> Avez-vous vu au moins une femme? </p><p> <strong> Oui [O] / Non [N] </strong></p> </div>	999	78	rsvpAnswFem	0	12	1	1	1	8	1	10	3	html-keyboard-response	103	82852	0.0-103.0	27	14:13 26-5-2020	
27	2020-05-26 12:13:28	2020-05-26 12:39:35	user7	1	1	EMOREG_S1	2020-05-09 00:00:00	2021-05-10 00:00:00	EMOREG	999	999	999	999	fullscreenExp	999	999	999	999	999	999	999	999	999	fullscreen	104	82885	0.0-104.0	27	14:13 26-5-2020	
27	2020-05-26 12:13:28	2020-05-26 12:39:35	user7	1	1	EMOREG_S1	2020-05-09 00:00:00	2021-05-10 00:00:00	EMOREG	999	fixation_cross	999	999	fixation	0	13	1	2	1	8	0	10	2	html-keyboard-response	105	83890	0.0-105.0	27	14:13 26-5-2020	
27	2020-05-26 12:13:28	2020-05-26 12:39:35	user7	1	1	EMOREG_S1	2020-05-09 00:00:00	2021-05-10 00:00:00	EMOREG	999	imgJS/WFF_scramble_24.jpg,imgJS/WFF_scramble_22.jpg,imgJS/WFF_scramble_30.jpg,imgJS/WFF_scramble_16.jpg,imgJS/WFF_scramble_7.jpg,imgJS/WFF_scramble_6.jpg,imgJS/WFF_scramble_4.jpg,imgJS/WFF_scramble_31.jpg,imgJS/WFF_13.jpg,imgJS/WFF_scramble_20.jpg,imgJS/WFN_69.jpg,imgJS/WFF_scramble_29.jpg,imgJS/WFF_scramble_12.jpg,imgJS/WFF_scramble_13.jpg,imgJS/WFF_scramble_15.jpg	999	999	rsvp_img_15	0	13	1	2	1	8	0	10	2	rsvp_flux	106	84942	0.0-106.0	27	14:13 26-5-2020	
27	2020-05-26 12:13:28	2020-05-26 12:39:35	user7	1	1	EMOREG_S1	2020-05-09 00:00:00	2021-05-10 00:00:00	EMOREG	590.18500009552	<div style="font-size:20px;"><p> Avez-vous vu au moins un homme? </p><p> <strong> Oui [O] / Non [N] </strong></p> </div>	999	78	rsvpAnswHom	0	13	1	2	1	8	0	10	2	html-keyboard-response	107	85535	0.0-107.0	27	14:13 26-5-2020	
27	2020-05-26 12:13:28	2020-05-26 12:39:35	user7	1	1	EMOREG_S1	2020-05-09 00:00:00	2021-05-10 00:00:00	EMOREG	999	999	999	999	fullscreenExp	999	999	999	999	999	999	999	999	999	fullscreen	108	85569	0.0-108.0	27	14:13 26-5-2020	
27	2020-05-26 12:13:28	2020-05-26 12:39:35	user7	1	1	EMOREG_S1	2020-05-09 00:00:00	2021-05-10 00:00:00	EMOREG	999	fixation_cross	999	999	fixation	0	14	1	4	1	8	2	12	2	html-keyboard-response	109	86573	0.0-109.0	27	14:13 26-5-2020	
27	2020-05-26 12:13:28	2020-05-26 12:39:35	user7	1	1	EMOREG_S1	2020-05-09 00:00:00	2021-05-10 00:00:00	EMOREG	999	imgJS/WFN_scramble_9.jpg,imgJS/WFN_scramble_80.jpg,imgJS/WFN_scramble_24.jpg,imgJS/WFN_scramble_76.jpg,imgJS/WFN_scramble_83.jpg,imgJS/WFN_scramble_14.jpg,imgJS/WFN_scramble_40.jpg,imgJS/WFN_scramble_73.jpg,imgJS/WFN_75.jpg,imgJS/WFN_scramble_43.jpg,imgJS/WFN_scramble_70.jpg,imgJS/WFN_scramble_37.jpg,imgJS/WFN_32.jpg,imgJS/WFN_scramble_8.jpg,imgJS/WFN_scramble_38.jpg	999	999	rsvp_img_15	0	14	1	4	1	8	2	12	2	rsvp_flux	110	87627	0.0-110.0	27	14:13 26-5-2020	
27	2020-05-26 12:13:28	2020-05-26 12:39:35	user7	1	1	EMOREG_S1	2020-05-09 00:00:00	2021-05-10 00:00:00	EMOREG	1062.649999978	<div style="font-size:20px;"><p> Avez-vous vu au moins un homme? </p><p> <strong> Oui [O] / Non [N] </strong></p> </div>	999	78	rsvpAnswHom	0	14	1	4	1	8	2	12	2	html-keyboard-response	111	88692	0.0-111.0	27	14:13 26-5-2020	
27	2020-05-26 12:13:28	2020-05-26 12:39:35	user7	1	1	EMOREG_S1	2020-05-09 00:00:00	2021-05-10 00:00:00	EMOREG	999	999	999	999	fullscreenExp	999	999	999	999	999	999	999	999	999	fullscreen	112	88729	0.0-112.0	27	14:13 26-5-2020	
27	2020-05-26 12:13:28	2020-05-26 12:39:35	user7	1	1	EMOREG_S1	2020-05-09 00:00:00	2021-05-10 00:00:00	EMOREG	999	fixation_cross	999	999	fixation	0	15	1	2	1	6	0	10	2	html-keyboard-response	113	89734	0.0-113.0	27	14:13 26-5-2020	
27	2020-05-26 12:13:28	2020-05-26 12:39:35	user7	1	1	EMOREG_S1	2020-05-09 00:00:00	2021-05-10 00:00:00	EMOREG	999	imgJS/WFF_scramble_11.jpg,imgJS/WFF_scramble_36.jpg,imgJS/WFF_scramble_16.jpg,imgJS/WFF_scramble_22.jpg,imgJS/WFF_scramble_5.jpg,imgJS/WFF_scramble_32.jpg,imgJS/WFF_27.jpg,imgJS/WFF_scramble_31.jpg,imgJS/WFF_scramble_30.jpg,imgJS/WFF_scramble_16.jpg,imgJS/WFN_38.jpg,imgJS/WFF_scramble_19.jpg,imgJS/WFF_scramble_33.jpg,imgJS/WFF_scramble_6.jpg,imgJS/WFF_scramble_27.jpg	999	999	rsvp_img_15	0	15	1	2	1	6	0	10	2	rsvp_flux	114	90788	0.0-114.0	27	14:13 26-5-2020	
27	2020-05-26 12:13:28	2020-05-26 12:39:35	user7	1	1	EMOREG_S1	2020-05-09 00:00:00	2021-05-10 00:00:00	EMOREG	870.85499998648	<div style="font-size:20px;"><p> Avez-vous vu au moins un homme? </p><p> <strong> Oui [O] / Non [N] </strong></p> </div>	999	78	rsvpAnswHom	0	15	1	2	1	6	0	10	2	html-keyboard-response	115	91662	0.0-115.0	27	14:13 26-5-2020	
27	2020-05-26 12:13:28	2020-05-26 12:39:35	user7	1	1	EMOREG_S1	2020-05-09 00:00:00	2021-05-10 00:00:00	EMOREG	999	999	999	999	fullscreenExp	999	999	999	999	999	999	999	999	999	fullscreen	116	91696	0.0-116.0	27	14:13 26-5-2020	
27	2020-05-26 12:13:28	2020-05-26 12:39:35	user7	1	1	EMOREG_S1	2020-05-09 00:00:00	2021-05-10 00:00:00	EMOREG	999	fixation_cross	999	999	fixation	0	16	1	1	1	5	1	7	3	html-keyboard-response	117	92700	0.0-117.0	27	14:13 26-5-2020	
27	2020-05-26 12:13:28	2020-05-26 12:39:35	user7	1	1	EMOREG_S1	2020-05-09 00:00:00	2021-05-10 00:00:00	EMOREG	999	imgJS/WMF_scramble_6.jpg,imgJS/WMF_scramble_11.jpg,imgJS/WMF_scramble_25.jpg,imgJS/WMF_scramble_6.jpg,imgJS/WMF_scramble_8.jpg,imgJS/WMF_8.jpg,imgJS/WMF_scramble_4.jpg,imgJS/WMN_66.jpg,imgJS/WMF_scramble_16.jpg,imgJS/WMF_scramble_27.jpg,imgJS/WMF_scramble_29.jpg,imgJS/WMF_scramble_28.jpg,imgJS/WMF_scramble_13.jpg,imgJS/WMF_scramble_5.jpg,imgJS/WMF_scramble_10.jpg	999	999	rsvp_img_15	0	16	1	1	1	5	1	7	3	rsvp_flux	118	93754	0.0-118.0	27	14:13 26-5-2020	
27	2020-05-26 12:13:28	2020-05-26 12:39:35	user7	1	1	EMOREG_S1	2020-05-09 00:00:00	2021-05-10 00:00:00	EMOREG	929.65499998536	<div style="font-size:20px;"><p> Avez-vous vu au moins une femme? </p><p> <strong> Oui [O] / Non [N] </strong></p> </div>	999	78	rsvpAnswFem	0	16	1	1	1	5	1	7	3	html-keyboard-response	119	94686	0.0-119.0	27	14:13 26-5-2020	
27	2020-05-26 12:13:28	2020-05-26 12:39:35	user7	1	1	EMOREG_S1	2020-05-09 00:00:00	2021-05-10 00:00:00	EMOREG	999	999	999	999	fullscreenExp	999	999	999	999	999	999	999	999	999	fullscreen	120	94724	0.0-120.0	27	14:13 26-5-2020	
27	2020-05-26 12:13:28	2020-05-26 12:39:35	user7	1	1	EMOREG_S1	2020-05-09 00:00:00	2021-05-10 00:00:00	EMOREG	999	fixation_cross	999	999	fixation	0	17	1	3	1	6	1	8	0	html-keyboard-response	121	95729	0.0-121.0	27	14:13 26-5-2020	
27	2020-05-26 12:13:28	2020-05-26 12:39:35	user7	1	1	EMOREG_S1	2020-05-09 00:00:00	2021-05-10 00:00:00	EMOREG	999	imgJS/WMF_scramble_16.jpg,imgJS/WMF_scramble_25.jpg,imgJS/WMF_scramble_25.jpg,imgJS/WMF_scramble_16.jpg,imgJS/WMF_scramble_21.jpg,imgJS/WMF_scramble_9.jpg,imgJS/WMF_26.jpg,imgJS/WMF_scramble_12.jpg,imgJS/WFF_31.jpg,imgJS/WMF_scramble_11.jpg,imgJS/WMF_scramble_13.jpg,imgJS/WMF_scramble_6.jpg,imgJS/WMF_scramble_6.jpg,imgJS/WMF_scramble_25.jpg,imgJS/WMF_scramble_21.jpg	999	999	rsvp_img_15	0	17	1	3	1	6	1	8	0	rsvp_flux	122	96782	0.0-122.0	27	14:13 26-5-2020	
27	2020-05-26 12:13:28	2020-05-26 12:39:35	user7	1	1	EMOREG_S1	2020-05-09 00:00:00	2021-05-10 00:00:00	EMOREG	386.10000000335	<div style="font-size:20px;"><p> Avez-vous vu au moins une femme? </p><p> <strong> Oui [O] / Non [N] </strong></p> </div>	999	79	rsvpAnswFem	0	17	1	3	1	6	1	8	0	html-keyboard-response	123	97171	0.0-123.0	27	14:13 26-5-2020	
27	2020-05-26 12:13:28	2020-05-26 12:39:35	user7	1	1	EMOREG_S1	2020-05-09 00:00:00	2021-05-10 00:00:00	EMOREG	999	999	999	999	fullscreenExp	999	999	999	999	999	999	999	999	999	fullscreen	124	97204	0.0-124.0	27	14:13 26-5-2020	
27	2020-05-26 12:13:28	2020-05-26 12:39:35	user7	1	1	EMOREG_S1	2020-05-09 00:00:00	2021-05-10 00:00:00	EMOREG	999	fixation_cross	999	999	fixation	0	18	1	1	1	5	1	7	3	html-keyboard-response	125	98209	0.0-125.0	27	14:13 26-5-2020	
27	2020-05-26 12:13:28	2020-05-26 12:39:35	user7	1	1	EMOREG_S1	2020-05-09 00:00:00	2021-05-10 00:00:00	EMOREG	999	imgJS/WMF_scramble_7.jpg,imgJS/WMF_scramble_17.jpg,imgJS/WMF_scramble_28.jpg,imgJS/WMF_scramble_14.jpg,imgJS/WMF_scramble_13.jpg,imgJS/WMF_13.jpg,imgJS/WMF_scramble_3.jpg,imgJS/WMN_75.jpg,imgJS/WMF_scramble_5.jpg,imgJS/WMF_scramble_17.jpg,imgJS/WMF_scramble_29.jpg,imgJS/WMF_scramble_22.jpg,imgJS/WMF_scramble_6.jpg,imgJS/WMF_scramble_10.jpg,imgJS/WMF_scramble_26.jpg	999	999	rsvp_img_15	0	18	1	1	1	5	1	7	3	rsvp_flux	126	99262	0.0-126.0	27	14:13 26-5-2020	
27	2020-05-26 12:13:28	2020-05-26 12:39:35	user7	1	1	EMOREG_S1	2020-05-09 00:00:00	2021-05-10 00:00:00	EMOREG	978.20000001229	<div style="font-size:20px;"><p> Avez-vous vu au moins une femme? </p><p> <strong> Oui [O] / Non [N] </strong></p> </div>	999	78	rsvpAnswFem	0	18	1	1	1	5	1	7	3	html-keyboard-response	127	100243	0.0-127.0	27	14:13 26-5-2020	
27	2020-05-26 12:13:28	2020-05-26 12:39:35	user7	1	1	EMOREG_S1	2020-05-09 00:00:00	2021-05-10 00:00:00	EMOREG	999	999	999	999	fullscreenExp	999	999	999	999	999	999	999	999	999	fullscreen	128	100276	0.0-128.0	27	14:13 26-5-2020	
27	2020-05-26 12:13:28	2020-05-26 12:39:35	user7	1	1	EMOREG_S1	2020-05-09 00:00:00	2021-05-10 00:00:00	EMOREG	999	fixation_cross	999	999	fixation	0	19	1	3	1	6	1	8	0	html-keyboard-response	129	101280	0.0-129.0	27	14:13 26-5-2020	
27	2020-05-26 12:13:28	2020-05-26 12:39:35	user7	1	1	EMOREG_S1	2020-05-09 00:00:00	2021-05-10 00:00:00	EMOREG	999	imgJS/WMF_scramble_23.jpg,imgJS/WMF_scramble_16.jpg,imgJS/WMF_scramble_7.jpg,imgJS/WMF_scramble_2.jpg,imgJS/WMF_scramble_11.jpg,imgJS/WMF_scramble_27.jpg,imgJS/WMF_21.jpg,imgJS/WMF_scramble_9.jpg,imgJS/WFF_24.jpg,imgJS/WMF_scramble_3.jpg,imgJS/WMF_scramble_17.jpg,imgJS/WMF_scramble_14.jpg,imgJS/WMF_scramble_3.jpg,imgJS/WMF_scramble_10.jpg,imgJS/WMF_scramble_4.jpg	999	999	rsvp_img_15	0	19	1	3	1	6	1	8	0	rsvp_flux	130	102333	0.0-130.0	27	14:13 26-5-2020	
27	2020-05-26 12:13:28	2020-05-26 12:39:35	user7	1	1	EMOREG_S1	2020-05-09 00:00:00	2021-05-10 00:00:00	EMOREG	598.44499989413	<div style="font-size:20px;"><p> Avez-vous vu au moins une femme? </p><p> <strong> Oui [O] / Non [N] </strong></p> </div>	999	79	rsvpAnswFem	0	19	1	3	1	6	1	8	0	html-keyboard-response	131	102934	0.0-131.0	27	14:13 26-5-2020	
27	2020-05-26 12:13:28	2020-05-26 12:39:35	user7	1	1	EMOREG_S1	2020-05-09 00:00:00	2021-05-10 00:00:00	EMOREG	999	999	999	999	fullscreenExp	999	999	999	999	999	999	999	999	999	fullscreen	132	102980	0.0-132.0	27	14:13 26-5-2020	
27	2020-05-26 12:13:28	2020-05-26 12:39:35	user7	1	1	EMOREG_S1	2020-05-09 00:00:00	2021-05-10 00:00:00	EMOREG	999	fixation_cross	999	999	fixation	0	20	1	4	1	4	2	6	2	html-keyboard-response	133	103984	0.0-133.0	27	14:13 26-5-2020	
27	2020-05-26 12:13:28	2020-05-26 12:39:35	user7	1	1	EMOREG_S1	2020-05-09 00:00:00	2021-05-10 00:00:00	EMOREG	999	imgJS/WFN_scramble_41.jpg,imgJS/WFN_scramble_35.jpg,imgJS/WFN_scramble_57.jpg,imgJS/WFN_scramble_48.jpg,imgJS/WFN_52.jpg,imgJS/WFN_scramble_68.jpg,imgJS/WFN_25.jpg,imgJS/WFN_scramble_44.jpg,imgJS/WFN_scramble_51.jpg,imgJS/WFN_scramble_15.jpg,imgJS/WFN_scramble_68.jpg,imgJS/WFN_scramble_81.jpg,imgJS/WFN_scramble_66.jpg,imgJS/WFN_scramble_41.jpg,imgJS/WFN_scramble_66.jpg	999	999	rsvp_img_15	0	20	1	4	1	4	2	6	2	rsvp_flux	134	105038	0.0-134.0	27	14:13 26-5-2020	
27	2020-05-26 12:13:28	2020-05-26 12:39:35	user7	1	1	EMOREG_S1	2020-05-09 00:00:00	2021-05-10 00:00:00	EMOREG	660.35000002012	<div style="font-size:20px;"><p> Avez-vous vu au moins un homme? </p><p> <strong> Oui [O] / Non [N] </strong></p> </div>	999	78	rsvpAnswHom	0	20	1	4	1	4	2	6	2	html-keyboard-response	135	105701	0.0-135.0	27	14:13 26-5-2020	
27	2020-05-26 12:13:28	2020-05-26 12:39:35	user7	1	1	EMOREG_S1	2020-05-09 00:00:00	2021-05-10 00:00:00	EMOREG	999	999	999	999	fullscreenExp	999	999	999	999	999	999	999	999	999	fullscreen	136	105739	0.0-136.0	27	14:13 26-5-2020	
27	2020-05-26 12:13:28	2020-05-26 12:39:35	user7	1	1	EMOREG_S1	2020-05-09 00:00:00	2021-05-10 00:00:00	EMOREG	999	fixation_cross	999	999	fixation	0	21	1	1	1	4	1	6	3	html-keyboard-response	137	106744	0.0-137.0	27	14:13 26-5-2020	
27	2020-05-26 12:13:28	2020-05-26 12:39:35	user7	1	1	EMOREG_S1	2020-05-09 00:00:00	2021-05-10 00:00:00	EMOREG	999	imgJS/WMF_scramble_8.jpg,imgJS/WMF_scramble_8.jpg,imgJS/WMF_scramble_18.jpg,imgJS/WMF_scramble_15.jpg,imgJS/WMF_16.jpg,imgJS/WMF_scramble_20.jpg,imgJS/WMN_86.jpg,imgJS/WMF_scramble_15.jpg,imgJS/WMF_scramble_7.jpg,imgJS/WMF_scramble_25.jpg,imgJS/WMF_scramble_25.jpg,imgJS/WMF_scramble_10.jpg,imgJS/WMF_scramble_12.jpg,imgJS/WMF_scramble_17.jpg,imgJS/WMF_scramble_21.jpg	999	999	rsvp_img_15	0	21	1	1	1	4	1	6	3	rsvp_flux	138	107797	0.0-138.0	27	14:13 26-5-2020	
27	2020-05-26 12:13:28	2020-05-26 12:39:35	user7	1	1	EMOREG_S1	2020-05-09 00:00:00	2021-05-10 00:00:00	EMOREG	686.63000001106	<div style="font-size:20px;"><p> Avez-vous vu au moins une femme? </p><p> <strong> Oui [O] / Non [N] </strong></p> </div>	999	78	rsvpAnswFem	0	21	1	1	1	4	1	6	3	html-keyboard-response	139	108487	0.0-139.0	27	14:13 26-5-2020	
27	2020-05-26 12:13:28	2020-05-26 12:39:35	user7	1	1	EMOREG_S1	2020-05-09 00:00:00	2021-05-10 00:00:00	EMOREG	999	999	999	999	fullscreenExp	999	999	999	999	999	999	999	999	999	fullscreen	140	108528	0.0-140.0	27	14:13 26-5-2020	
27	2020-05-26 12:13:28	2020-05-26 12:39:35	user7	1	1	EMOREG_S1	2020-05-09 00:00:00	2021-05-10 00:00:00	EMOREG	999	fixation_cross	999	999	fixation	0	22	1	2	1	5	0	7	2	html-keyboard-response	141	109532	0.0-141.0	27	14:13 26-5-2020	
27	2020-05-26 12:13:28	2020-05-26 12:39:35	user7	1	1	EMOREG_S1	2020-05-09 00:00:00	2021-05-10 00:00:00	EMOREG	999	imgJS/WFF_scramble_32.jpg,imgJS/WFF_scramble_28.jpg,imgJS/WFF_scramble_6.jpg,imgJS/WFF_scramble_31.jpg,imgJS/WFF_scramble_17.jpg,imgJS/WFF_18.jpg,imgJS/WFF_scramble_1.jpg,imgJS/WFN_58.jpg,imgJS/WFF_scramble_9.jpg,imgJS/WFF_scramble_4.jpg,imgJS/WFF_scramble_35.jpg,imgJS/WFF_scramble_19.jpg,imgJS/WFF_scramble_14.jpg,imgJS/WFF_scramble_21.jpg,imgJS/WFF_scramble_10.jpg	999	999	rsvp_img_15	0	22	1	2	1	5	0	7	2	rsvp_flux	142	110588	0.0-142.0	27	14:13 26-5-2020	
27	2020-05-26 12:13:28	2020-05-26 12:39:35	user7	1	1	EMOREG_S1	2020-05-09 00:00:00	2021-05-10 00:00:00	EMOREG	769.03500000481	<div style="font-size:20px;"><p> Avez-vous vu au moins un homme? </p><p> <strong> Oui [O] / Non [N] </strong></p> </div>	999	78	rsvpAnswHom	0	22	1	2	1	5	0	7	2	html-keyboard-response	143	111359	0.0-143.0	27	14:13 26-5-2020	
27	2020-05-26 12:13:28	2020-05-26 12:39:35	user7	1	1	EMOREG_S1	2020-05-09 00:00:00	2021-05-10 00:00:00	EMOREG	999	999	999	999	fullscreenExp	999	999	999	999	999	999	999	999	999	fullscreen	144	111392	0.0-144.0	27	14:13 26-5-2020	
27	2020-05-26 12:13:28	2020-05-26 12:39:35	user7	1	1	EMOREG_S1	2020-05-09 00:00:00	2021-05-10 00:00:00	EMOREG	999	fixation_cross	999	999	fixation	0	23	1	1	1	8	1	10	2	html-keyboard-response	145	112396	0.0-145.0	27	14:13 26-5-2020	
27	2020-05-26 12:13:28	2020-05-26 12:39:35	user7	1	1	EMOREG_S1	2020-05-09 00:00:00	2021-05-10 00:00:00	EMOREG	999	imgJS/WMF_scramble_5.jpg,imgJS/WMF_scramble_25.jpg,imgJS/WMF_scramble_26.jpg,imgJS/WMF_scramble_6.jpg,imgJS/WMF_scramble_28.jpg,imgJS/WMF_scramble_25.jpg,imgJS/WMF_scramble_26.jpg,imgJS/WMF_scramble_19.jpg,imgJS/WMF_6.jpg,imgJS/WMF_scramble_15.jpg,imgJS/WFN_64.jpg,imgJS/WMF_scramble_3.jpg,imgJS/WMF_scramble_25.jpg,imgJS/WMF_scramble_9.jpg,imgJS/WMF_scramble_22.jpg	999	999	rsvp_img_15	0	23	1	1	1	8	1	10	2	rsvp_flux	146	113450	0.0-146.0	27	14:13 26-5-2020	
27	2020-05-26 12:13:28	2020-05-26 12:39:35	user7	1	1	EMOREG_S1	2020-05-09 00:00:00	2021-05-10 00:00:00	EMOREG	857.06499998923	<div style="font-size:20px;"><p> Avez-vous vu au moins une femme? </p><p> <strong> Oui [O] / Non [N] </strong></p> </div>	999	78	rsvpAnswFem	0	23	1	1	1	8	1	10	2	html-keyboard-response	147	114310	0.0-147.0	27	14:13 26-5-2020	
27	2020-05-26 12:13:28	2020-05-26 12:39:35	user7	1	1	EMOREG_S1	2020-05-09 00:00:00	2021-05-10 00:00:00	EMOREG	999	999	999	999	fullscreenExp	999	999	999	999	999	999	999	999	999	fullscreen	148	114350	0.0-148.0	27	14:13 26-5-2020	
27	2020-05-26 12:13:28	2020-05-26 12:39:35	user7	1	1	EMOREG_S1	2020-05-09 00:00:00	2021-05-10 00:00:00	EMOREG	999	instructions/instructionsDiapo/Slide10.jpg	999	999	instrCondi	1	999			1	999	999	999	999	image-keyboard-response	149	197342	0.0-149.0	27	14:13 26-5-2020	
27	2020-05-26 12:13:28	2020-05-26 12:39:35	user7	1	1	EMOREG_S1	2020-05-09 00:00:00	2021-05-10 00:00:00	EMOREG	999	fixation_cross	999	999	fixation	1	0	2	5	1	7	3	9	1	html-keyboard-response	150	198346	0.0-150.0	27	14:13 26-5-2020	
27	2020-05-26 12:13:28	2020-05-26 12:39:35	user7	1	1	EMOREG_S1	2020-05-09 00:00:00	2021-05-10 00:00:00	EMOREG	999	imgJS/WMN_scramble_82.jpg,imgJS/WMN_scramble_13.jpg,imgJS/WMN_scramble_61.jpg,imgJS/WMN_scramble_88.jpg,imgJS/WMN_scramble_31.jpg,imgJS/WMN_scramble_79.jpg,imgJS/WMN_scramble_57.jpg,imgJS/WMN_85.jpg,imgJS/WMN_scramble_37.jpg,imgJS/WMF_10.jpg,imgJS/WMN_scramble_7.jpg,imgJS/WMN_scramble_32.jpg,imgJS/WMN_scramble_39.jpg,imgJS/WMN_scramble_17.jpg,imgJS/WMN_scramble_47.jpg	999	999	rsvp_img_15	1	0	2	5	1	7	3	9	1	rsvp_flux	151	199400	0.0-151.0	27	14:13 26-5-2020	
27	2020-05-26 12:13:28	2020-05-26 12:39:35	user7	1	1	EMOREG_S1	2020-05-09 00:00:00	2021-05-10 00:00:00	EMOREG	882.1600000374	<div style="font-size:20px;"><p> Avez-vous vu au moins une femme? </p><p> <strong> Oui [O] / Non [N] </strong></p> </div>	999	78	rsvpAnswFem	1	0	2	5	1	7	3	9	1	html-keyboard-response	152	200284	0.0-152.0	27	14:13 26-5-2020	
27	2020-05-26 12:13:28	2020-05-26 12:39:35	user7	1	1	EMOREG_S1	2020-05-09 00:00:00	2021-05-10 00:00:00	EMOREG	999	999	999	999	fullscreenExp	999	999	999	999	999	999	999	999	999	fullscreen	153	200317	0.0-153.0	27	14:13 26-5-2020	
27	2020-05-26 12:13:28	2020-05-26 12:39:35	user7	1	1	EMOREG_S1	2020-05-09 00:00:00	2021-05-10 00:00:00	EMOREG	999	fixation_cross	999	999	fixation	1	1	2	6	1	7	2	9	0	html-keyboard-response	154	201322	0.0-154.0	27	14:13 26-5-2020	
27	2020-05-26 12:13:28	2020-05-26 12:39:35	user7	1	1	EMOREG_S1	2020-05-09 00:00:00	2021-05-10 00:00:00	EMOREG	999	imgJS/WFN_scramble_5.jpg,imgJS/WFN_scramble_71.jpg,imgJS/WFN_scramble_22.jpg,imgJS/WFN_scramble_61.jpg,imgJS/WFN_scramble_47.jpg,imgJS/WFN_scramble_69.jpg,imgJS/WFN_scramble_16.jpg,imgJS/WFN_3.jpg,imgJS/WFN_scramble_11.jpg,imgJS/WFF_14.jpg,imgJS/WFN_scramble_11.jpg,imgJS/WFN_scramble_32.jpg,imgJS/WFN_scramble_11.jpg,imgJS/WFN_scramble_69.jpg,imgJS/WFN_scramble_12.jpg	999	999	rsvp_img_15	1	1	2	6	1	7	2	9	0	rsvp_flux	155	202375	0.0-155.0	27	14:13 26-5-2020	
27	2020-05-26 12:13:28	2020-05-26 12:39:35	user7	1	1	EMOREG_S1	2020-05-09 00:00:00	2021-05-10 00:00:00	EMOREG	633.11499997508	<div style="font-size:20px;"><p> Avez-vous vu au moins un homme? </p><p> <strong> Oui [O] / Non [N] </strong></p> </div>	999	78	rsvpAnswHom	1	1	2	6	1	7	2	9	0	html-keyboard-response	156	203011	0.0-156.0	27	14:13 26-5-2020	
27	2020-05-26 12:13:28	2020-05-26 12:39:35	user7	1	1	EMOREG_S1	2020-05-09 00:00:00	2021-05-10 00:00:00	EMOREG	999	999	999	999	fullscreenExp	999	999	999	999	999	999	999	999	999	fullscreen	157	203052	0.0-157.0	27	14:13 26-5-2020	
27	2020-05-26 12:13:28	2020-05-26 12:39:35	user7	1	1	EMOREG_S1	2020-05-09 00:00:00	2021-05-10 00:00:00	EMOREG	999	fixation_cross	999	999	fixation	1	2	2	3	1	6	3	8	2	html-keyboard-response	158	204057	0.0-158.0	27	14:13 26-5-2020	
27	2020-05-26 12:13:28	2020-05-26 12:39:35	user7	1	1	EMOREG_S1	2020-05-09 00:00:00	2021-05-10 00:00:00	EMOREG	999	imgJS/WMN_scramble_29.jpg,imgJS/WMN_scramble_50.jpg,imgJS/WMN_scramble_88.jpg,imgJS/WMN_scramble_34.jpg,imgJS/WMN_scramble_22.jpg,imgJS/WMN_scramble_48.jpg,imgJS/WMN_31.jpg,imgJS/WMN_scramble_40.jpg,imgJS/WFN_23.jpg,imgJS/WMN_scramble_52.jpg,imgJS/WMN_scramble_55.jpg,imgJS/WMN_scramble_64.jpg,imgJS/WMN_scramble_72.jpg,imgJS/WMN_scramble_16.jpg,imgJS/WMN_scramble_38.jpg	999	999	rsvp_img_15	1	2	2	3	1	6	3	8	2	rsvp_flux	159	205111	0.0-159.0	27	14:13 26-5-2020	
27	2020-05-26 12:13:28	2020-05-26 12:39:35	user7	1	1	EMOREG_S1	2020-05-09 00:00:00	2021-05-10 00:00:00	EMOREG	1081.6549999872	<div style="font-size:20px;"><p> Avez-vous vu au moins une femme? </p><p> <strong> Oui [O] / Non [N] </strong></p> </div>	999	79	rsvpAnswFem	1	2	2	3	1	6	3	8	2	html-keyboard-response	160	206195	0.0-160.0	27	14:13 26-5-2020	
27	2020-05-26 12:13:28	2020-05-26 12:39:35	user7	1	1	EMOREG_S1	2020-05-09 00:00:00	2021-05-10 00:00:00	EMOREG	999	999	999	999	fullscreenExp	999	999	999	999	999	999	999	999	999	fullscreen	161	206228	0.0-161.0	27	14:13 26-5-2020	
27	2020-05-26 12:13:28	2020-05-26 12:39:35	user7	1	1	EMOREG_S1	2020-05-09 00:00:00	2021-05-10 00:00:00	EMOREG	999	fixation_cross	999	999	fixation	1	3	2	6	1	5	2	9	0	html-keyboard-response	162	207233	0.0-162.0	27	14:13 26-5-2020	
27	2020-05-26 12:13:28	2020-05-26 12:39:35	user7	1	1	EMOREG_S1	2020-05-09 00:00:00	2021-05-10 00:00:00	EMOREG	999	imgJS/WFN_scramble_24.jpg,imgJS/WFN_scramble_47.jpg,imgJS/WFN_scramble_36.jpg,imgJS/WFN_scramble_70.jpg,imgJS/WFN_scramble_45.jpg,imgJS/WFN_67.jpg,imgJS/WFN_scramble_86.jpg,imgJS/WFN_scramble_76.jpg,imgJS/WFN_scramble_74.jpg,imgJS/WFF_29.jpg,imgJS/WFN_scramble_60.jpg,imgJS/WFN_scramble_58.jpg,imgJS/WFN_scramble_75.jpg,imgJS/WFN_scramble_50.jpg,imgJS/WFN_scramble_5.jpg	999	999	rsvp_img_15	1	3	2	6	1	5	2	9	0	rsvp_flux	163	208286	0.0-163.0	27	14:13 26-5-2020	
27	2020-05-26 12:13:28	2020-05-26 12:39:35	user7	1	1	EMOREG_S1	2020-05-09 00:00:00	2021-05-10 00:00:00	EMOREG	1389.2099999357	<div style="font-size:20px;"><p> Avez-vous vu au moins un homme? </p><p> <strong> Oui [O] / Non [N] </strong></p> </div>	999	79	rsvpAnswHom	1	3	2	6	1	5	2	9	0	html-keyboard-response	164	209678	0.0-164.0	27	14:13 26-5-2020	
27	2020-05-26 12:13:28	2020-05-26 12:39:35	user7	1	1	EMOREG_S1	2020-05-09 00:00:00	2021-05-10 00:00:00	EMOREG	999	999	999	999	fullscreenExp	999	999	999	999	999	999	999	999	999	fullscreen	165	209711	0.0-165.0	27	14:13 26-5-2020	
27	2020-05-26 12:13:28	2020-05-26 12:39:35	user7	1	1	EMOREG_S1	2020-05-09 00:00:00	2021-05-10 00:00:00	EMOREG	999	fixation_cross	999	999	fixation	1	4	2	6	1	4	2	8	0	html-keyboard-response	166	210717	0.0-166.0	27	14:13 26-5-2020	
27	2020-05-26 12:13:28	2020-05-26 12:39:35	user7	1	1	EMOREG_S1	2020-05-09 00:00:00	2021-05-10 00:00:00	EMOREG	999	imgJS/WFN_scramble_69.jpg,imgJS/WFN_scramble_62.jpg,imgJS/WFN_scramble_60.jpg,imgJS/WFN_scramble_74.jpg,imgJS/WFN_10.jpg,imgJS/WFN_scramble_12.jpg,imgJS/WFN_scramble_78.jpg,imgJS/WFN_scramble_32.jpg,imgJS/WFF_30.jpg,imgJS/WFN_scramble_20.jpg,imgJS/WFN_scramble_18.jpg,imgJS/WFN_scramble_73.jpg,imgJS/WFN_scramble_42.jpg,imgJS/WFN_scramble_64.jpg,imgJS/WFN_scramble_82.jpg	999	999	rsvp_img_15	1	4	2	6	1	4	2	8	0	rsvp_flux	167	211772	0.0-167.0	27	14:13 26-5-2020	
27	2020-05-26 12:13:28	2020-05-26 12:39:35	user7	1	1	EMOREG_S1	2020-05-09 00:00:00	2021-05-10 00:00:00	EMOREG	750.7850000402	<div style="font-size:20px;"><p> Avez-vous vu au moins un homme? </p><p> <strong> Oui [O] / Non [N] </strong></p> </div>	999	78	rsvpAnswHom	1	4	2	6	1	4	2	8	0	html-keyboard-response	168	212526	0.0-168.0	27	14:13 26-5-2020	
27	2020-05-26 12:13:28	2020-05-26 12:39:35	user7	1	1	EMOREG_S1	2020-05-09 00:00:00	2021-05-10 00:00:00	EMOREG	999	999	999	999	fullscreenExp	999	999	999	999	999	999	999	999	999	fullscreen	169	212559	0.0-169.0	27	14:13 26-5-2020	
27	2020-05-26 12:13:28	2020-05-26 12:39:35	user7	1	1	EMOREG_S1	2020-05-09 00:00:00	2021-05-10 00:00:00	EMOREG	999	fixation_cross	999	999	fixation	1	5	2	5	1	7	3	11	1	html-keyboard-response	170	213564	0.0-170.0	27	14:13 26-5-2020	
27	2020-05-26 12:13:28	2020-05-26 12:39:35	user7	1	1	EMOREG_S1	2020-05-09 00:00:00	2021-05-10 00:00:00	EMOREG	999	imgJS/WMN_scramble_50.jpg,imgJS/WMN_scramble_2.jpg,imgJS/WMN_scramble_7.jpg,imgJS/WMN_scramble_52.jpg,imgJS/WMN_scramble_58.jpg,imgJS/WMN_scramble_50.jpg,imgJS/WMN_scramble_60.jpg,imgJS/WMN_85.jpg,imgJS/WMN_scramble_33.jpg,imgJS/WMN_scramble_51.jpg,imgJS/WMN_scramble_51.jpg,imgJS/WMF_4.jpg,imgJS/WMN_scramble_56.jpg,imgJS/WMN_scramble_4.jpg,imgJS/WMN_scramble_73.jpg	999	999	rsvp_img_15	1	5	2	5	1	7	3	11	1	rsvp_flux	171	214617	0.0-171.0	27	14:13 26-5-2020	
27	2020-05-26 12:13:28	2020-05-26 12:39:35	user7	1	1	EMOREG_S1	2020-05-09 00:00:00	2021-05-10 00:00:00	EMOREG	803.76000003889	<div style="font-size:20px;"><p> Avez-vous vu au moins une femme? </p><p> <strong> Oui [O] / Non [N] </strong></p> </div>	999	78	rsvpAnswFem	1	5	2	5	1	7	3	11	1	html-keyboard-response	172	215423	0.0-172.0	27	14:13 26-5-2020	
27	2020-05-26 12:13:28	2020-05-26 12:39:35	user7	1	1	EMOREG_S1	2020-05-09 00:00:00	2021-05-10 00:00:00	EMOREG	999	999	999	999	fullscreenExp	999	999	999	999	999	999	999	999	999	fullscreen	173	215457	0.0-173.0	27	14:13 26-5-2020	
27	2020-05-26 12:13:28	2020-05-26 12:39:35	user7	1	1	EMOREG_S1	2020-05-09 00:00:00	2021-05-10 00:00:00	EMOREG	999	fixation_cross	999	999	fixation	1	6	2	3	1	5	1	7	0	html-keyboard-response	174	216461	0.0-174.0	27	14:13 26-5-2020	
27	2020-05-26 12:13:28	2020-05-26 12:39:35	user7	1	1	EMOREG_S1	2020-05-09 00:00:00	2021-05-10 00:00:00	EMOREG	999	imgJS/WMF_scramble_1.jpg,imgJS/WMF_scramble_16.jpg,imgJS/WMF_scramble_3.jpg,imgJS/WMF_scramble_17.jpg,imgJS/WMF_scramble_5.jpg,imgJS/WMF_14.jpg,imgJS/WMF_scramble_25.jpg,imgJS/WFF_28.jpg,imgJS/WMF_scramble_22.jpg,imgJS/WMF_scramble_19.jpg,imgJS/WMF_scramble_7.jpg,imgJS/WMF_scramble_25.jpg,imgJS/WMF_scramble_22.jpg,imgJS/WMF_scramble_4.jpg,imgJS/WMF_scramble_9.jpg	999	999	rsvp_img_15	1	6	2	3	1	5	1	7	0	rsvp_flux	175	217514	0.0-175.0	27	14:13 26-5-2020	
27	2020-05-26 12:13:28	2020-05-26 12:39:35	user7	1	1	EMOREG_S1	2020-05-09 00:00:00	2021-05-10 00:00:00	EMOREG	567.27500003763	<div style="font-size:20px;"><p> Avez-vous vu au moins une femme? </p><p> <strong> Oui [O] / Non [N] </strong></p> </div>	999	79	rsvpAnswFem	1	6	2	3	1	5	1	7	0	html-keyboard-response	176	218084	0.0-176.0	27	14:13 26-5-2020	
27	2020-05-26 12:13:28	2020-05-26 12:39:35	user7	1	1	EMOREG_S1	2020-05-09 00:00:00	2021-05-10 00:00:00	EMOREG	999	999	999	999	fullscreenExp	999	999	999	999	999	999	999	999	999	fullscreen	177	218127	0.0-177.0	27	14:13 26-5-2020	
27	2020-05-26 12:13:28	2020-05-26 12:39:35	user7	1	1	EMOREG_S1	2020-05-09 00:00:00	2021-05-10 00:00:00	EMOREG	999	fixation_cross	999	999	fixation	1	7	2	6	1	4	2	6	0	html-keyboard-response	178	219131	0.0-178.0	27	14:13 26-5-2020	
27	2020-05-26 12:13:28	2020-05-26 12:39:35	user7	1	1	EMOREG_S1	2020-05-09 00:00:00	2021-05-10 00:00:00	EMOREG	999	imgJS/WFN_scramble_81.jpg,imgJS/WFN_scramble_11.jpg,imgJS/WFN_scramble_8.jpg,imgJS/WFN_scramble_66.jpg,imgJS/WFN_9.jpg,imgJS/WFN_scramble_26.jpg,imgJS/WFF_18.jpg,imgJS/WFN_scramble_6.jpg,imgJS/WFN_scramble_64.jpg,imgJS/WFN_scramble_56.jpg,imgJS/WFN_scramble_86.jpg,imgJS/WFN_scramble_2.jpg,imgJS/WFN_scramble_34.jpg,imgJS/WFN_scramble_78.jpg,imgJS/WFN_scramble_57.jpg	999	999	rsvp_img_15	1	7	2	6	1	4	2	6	0	rsvp_flux	179	220184	0.0-179.0	27	14:13 26-5-2020	
27	2020-05-26 12:13:28	2020-05-26 12:39:35	user7	1	1	EMOREG_S1	2020-05-09 00:00:00	2021-05-10 00:00:00	EMOREG	970.42500006501	<div style="font-size:20px;"><p> Avez-vous vu au moins un homme? </p><p> <strong> Oui [O] / Non [N] </strong></p> </div>	999	78	rsvpAnswHom	1	7	2	6	1	4	2	6	0	html-keyboard-response	180	221157	0.0-180.0	27	14:13 26-5-2020	
27	2020-05-26 12:13:28	2020-05-26 12:39:35	user7	1	1	EMOREG_S1	2020-05-09 00:00:00	2021-05-10 00:00:00	EMOREG	999	999	999	999	fullscreenExp	999	999	999	999	999	999	999	999	999	fullscreen	181	221190	0.0-181.0	27	14:13 26-5-2020	
27	2020-05-26 12:13:28	2020-05-26 12:39:35	user7	1	1	EMOREG_S1	2020-05-09 00:00:00	2021-05-10 00:00:00	EMOREG	999	fixation_cross	999	999	fixation	1	8	2	6	1	6	2	8	1	html-keyboard-response	182	222195	0.0-182.0	27	14:13 26-5-2020	
27	2020-05-26 12:13:28	2020-05-26 12:39:35	user7	1	1	EMOREG_S1	2020-05-09 00:00:00	2021-05-10 00:00:00	EMOREG	999	imgJS/WFN_scramble_42.jpg,imgJS/WFN_scramble_47.jpg,imgJS/WFN_scramble_39.jpg,imgJS/WFN_scramble_83.jpg,imgJS/WFN_scramble_66.jpg,imgJS/WFN_scramble_64.jpg,imgJS/WFN_34.jpg,imgJS/WFN_scramble_17.jpg,imgJS/WMF_18.jpg,imgJS/WFN_scramble_38.jpg,imgJS/WFN_scramble_48.jpg,imgJS/WFN_scramble_44.jpg,imgJS/WFN_scramble_6.jpg,imgJS/WFN_scramble_80.jpg,imgJS/WFN_scramble_81.jpg	999	999	rsvp_img_15	1	8	2	6	1	6	2	8	1	rsvp_flux	183	223249	0.0-183.0	27	14:13 26-5-2020	
27	2020-05-26 12:13:28	2020-05-26 12:39:35	user7	1	1	EMOREG_S1	2020-05-09 00:00:00	2021-05-10 00:00:00	EMOREG	830.53999999538	<div style="font-size:20px;"><p> Avez-vous vu au moins un homme? </p><p> <strong> Oui [O] / Non [N] </strong></p> </div>	999	78	rsvpAnswHom	1	8	2	6	1	6	2	8	1	html-keyboard-response	184	224082	0.0-184.0	27	14:13 26-5-2020	
27	2020-05-26 12:13:28	2020-05-26 12:39:35	user7	1	1	EMOREG_S1	2020-05-09 00:00:00	2021-05-10 00:00:00	EMOREG	999	999	999	999	fullscreenExp	999	999	999	999	999	999	999	999	999	fullscreen	185	224116	0.0-185.0	27	14:13 26-5-2020	
27	2020-05-26 12:13:28	2020-05-26 12:39:35	user7	1	1	EMOREG_S1	2020-05-09 00:00:00	2021-05-10 00:00:00	EMOREG	999	fixation_cross	999	999	fixation	1	9	2	6	1	4	2	6	0	html-keyboard-response	186	225120	0.0-186.0	27	14:13 26-5-2020	
27	2020-05-26 12:13:28	2020-05-26 12:39:35	user7	1	1	EMOREG_S1	2020-05-09 00:00:00	2021-05-10 00:00:00	EMOREG	999	imgJS/WFN_scramble_71.jpg,imgJS/WFN_scramble_30.jpg,imgJS/WFN_scramble_5.jpg,imgJS/WFN_scramble_35.jpg,imgJS/WFN_17.jpg,imgJS/WFN_scramble_32.jpg,imgJS/WFF_23.jpg,imgJS/WFN_scramble_4.jpg,imgJS/WFN_scramble_75.jpg,imgJS/WFN_scramble_17.jpg,imgJS/WFN_scramble_56.jpg,imgJS/WFN_scramble_22.jpg,imgJS/WFN_scramble_46.jpg,imgJS/WFN_scramble_4.jpg,imgJS/WFN_scramble_15.jpg	999	999	rsvp_img_15	1	9	2	6	1	4	2	6	0	rsvp_flux	187	226172	0.0-187.0	27	14:13 26-5-2020	
27	2020-05-26 12:13:28	2020-05-26 12:39:35	user7	1	1	EMOREG_S1	2020-05-09 00:00:00	2021-05-10 00:00:00	EMOREG	912.94499998912	<div style="font-size:20px;"><p> Avez-vous vu au moins un homme? </p><p> <strong> Oui [O] / Non [N] </strong></p> </div>	999	78	rsvpAnswHom	1	9	2	6	1	4	2	6	0	html-keyboard-response	188	227088	0.0-188.0	27	14:13 26-5-2020	
27	2020-05-26 12:13:28	2020-05-26 12:39:35	user7	1	1	EMOREG_S1	2020-05-09 00:00:00	2021-05-10 00:00:00	EMOREG	999	999	999	999	fullscreenExp	999	999	999	999	999	999	999	999	999	fullscreen	189	227122	0.0-189.0	27	14:13 26-5-2020	
27	2020-05-26 12:13:28	2020-05-26 12:39:35	user7	1	1	EMOREG_S1	2020-05-09 00:00:00	2021-05-10 00:00:00	EMOREG	999	fixation_cross	999	999	fixation	1	10	2	3	1	7	3	11	3	html-keyboard-response	190	228126	0.0-190.0	27	14:13 26-5-2020	
27	2020-05-26 12:13:28	2020-05-26 12:39:35	user7	1	1	EMOREG_S1	2020-05-09 00:00:00	2021-05-10 00:00:00	EMOREG	999	imgJS/WMN_scramble_83.jpg,imgJS/WMN_scramble_9.jpg,imgJS/WMN_scramble_35.jpg,imgJS/WMN_scramble_91.jpg,imgJS/WMN_scramble_59.jpg,imgJS/WMN_scramble_40.jpg,imgJS/WMN_scramble_91.jpg,imgJS/WMN_14.jpg,imgJS/WMN_scramble_2.jpg,imgJS/WMN_scramble_34.jpg,imgJS/WMN_scramble_84.jpg,imgJS/WMN_74.jpg,imgJS/WMN_scramble_1.jpg,imgJS/WMN_scramble_29.jpg,imgJS/WMN_scramble_24.jpg	999	999	rsvp_img_15	1	10	2	3	1	7	3	11	3	rsvp_flux	191	229180	0.0-191.0	27	14:13 26-5-2020	
27	2020-05-26 12:13:28	2020-05-26 12:39:35	user7	1	1	EMOREG_S1	2020-05-09 00:00:00	2021-05-10 00:00:00	EMOREG	621.28500000108	<div style="font-size:20px;"><p> Avez-vous vu au moins une femme? </p><p> <strong> Oui [O] / Non [N] </strong></p> </div>	999	78	rsvpAnswFem	1	10	2	3	1	7	3	11	3	html-keyboard-response	192	229803	0.0-192.0	27	14:13 26-5-2020	
27	2020-05-26 12:13:28	2020-05-26 12:39:35	user7	1	1	EMOREG_S1	2020-05-09 00:00:00	2021-05-10 00:00:00	EMOREG	999	999	999	999	fullscreenExp	999	999	999	999	999	999	999	999	999	fullscreen	193	229836	0.0-193.0	27	14:13 26-5-2020	
27	2020-05-26 12:13:28	2020-05-26 12:39:35	user7	1	1	EMOREG_S1	2020-05-09 00:00:00	2021-05-10 00:00:00	EMOREG	999	fixation_cross	999	999	fixation	1	11	2	4	1	8	2	10	3	html-keyboard-response	194	230841	0.0-194.0	27	14:13 26-5-2020	
27	2020-05-26 12:13:28	2020-05-26 12:39:35	user7	1	1	EMOREG_S1	2020-05-09 00:00:00	2021-05-10 00:00:00	EMOREG	999	imgJS/WFN_scramble_9.jpg,imgJS/WFN_scramble_41.jpg,imgJS/WFN_scramble_56.jpg,imgJS/WFN_scramble_2.jpg,imgJS/WFN_scramble_4.jpg,imgJS/WFN_scramble_63.jpg,imgJS/WFN_scramble_69.jpg,imgJS/WFN_scramble_68.jpg,imgJS/WFN_72.jpg,imgJS/WFN_scramble_65.jpg,imgJS/WMN_55.jpg,imgJS/WFN_scramble_26.jpg,imgJS/WFN_scramble_37.jpg,imgJS/WFN_scramble_46.jpg,imgJS/WFN_scramble_32.jpg	999	999	rsvp_img_15	1	11	2	4	1	8	2	10	3	rsvp_flux	195	231895	0.0-195.0	27	14:13 26-5-2020	
27	2020-05-26 12:13:28	2020-05-26 12:39:35	user7	1	1	EMOREG_S1	2020-05-09 00:00:00	2021-05-10 00:00:00	EMOREG	933.38000006042	<div style="font-size:20px;"><p> Avez-vous vu au moins un homme? </p><p> <strong> Oui [O] / Non [N] </strong></p> </div>	999	78	rsvpAnswHom	1	11	2	4	1	8	2	10	3	html-keyboard-response	196	232831	0.0-196.0	27	14:13 26-5-2020	
27	2020-05-26 12:13:28	2020-05-26 12:39:35	user7	1	1	EMOREG_S1	2020-05-09 00:00:00	2021-05-10 00:00:00	EMOREG	999	999	999	999	fullscreenExp	999	999	999	999	999	999	999	999	999	fullscreen	197	232867	0.0-197.0	27	14:13 26-5-2020	
27	2020-05-26 12:13:28	2020-05-26 12:39:35	user7	1	1	EMOREG_S1	2020-05-09 00:00:00	2021-05-10 00:00:00	EMOREG	999	fixation_cross	999	999	fixation	1	12	2	4	1	4	0	6	1	html-keyboard-response	198	233871	0.0-198.0	27	14:13 26-5-2020	
27	2020-05-26 12:13:28	2020-05-26 12:39:35	user7	1	1	EMOREG_S1	2020-05-09 00:00:00	2021-05-10 00:00:00	EMOREG	999	imgJS/WFF_scramble_21.jpg,imgJS/WFF_scramble_36.jpg,imgJS/WFF_scramble_19.jpg,imgJS/WFF_scramble_22.jpg,imgJS/WFF_21.jpg,imgJS/WFF_scramble_35.jpg,imgJS/WMF_8.jpg,imgJS/WFF_scramble_15.jpg,imgJS/WFF_scramble_1.jpg,imgJS/WFF_scramble_24.jpg,imgJS/WFF_scramble_24.jpg,imgJS/WFF_scramble_35.jpg,imgJS/WFF_scramble_34.jpg,imgJS/WFF_scramble_16.jpg,imgJS/WFF_scramble_9.jpg	999	999	rsvp_img_15	1	12	2	4	1	4	0	6	1	rsvp_flux	199	234925	0.0-199.0	27	14:13 26-5-2020	
27	2020-05-26 12:13:28	2020-05-26 12:39:35	user7	1	1	EMOREG_S1	2020-05-09 00:00:00	2021-05-10 00:00:00	EMOREG	2654.0050000185	<div style="font-size:20px;"><p> Avez-vous vu au moins un homme? </p><p> <strong> Oui [O] / Non [N] </strong></p> </div>	999	79	rsvpAnswHom	1	12	2	4	1	4	0	6	1	html-keyboard-response	200	237582	0.0-200.0	27	14:13 26-5-2020	
27	2020-05-26 12:13:28	2020-05-26 12:39:35	user7	1	1	EMOREG_S1	2020-05-09 00:00:00	2021-05-10 00:00:00	EMOREG	999	999	999	999	fullscreenExp	999	999	999	999	999	999	999	999	999	fullscreen	201	237617	0.0-201.0	27	14:13 26-5-2020	
27	2020-05-26 12:13:28	2020-05-26 12:39:35	user7	1	1	EMOREG_S1	2020-05-09 00:00:00	2021-05-10 00:00:00	EMOREG	999	fixation_cross	999	999	fixation	1	13	2	5	1	5	3	9	1	html-keyboard-response	202	238621	0.0-202.0	27	14:13 26-5-2020	
27	2020-05-26 12:13:28	2020-05-26 12:39:35	user7	1	1	EMOREG_S1	2020-05-09 00:00:00	2021-05-10 00:00:00	EMOREG	999	imgJS/WMN_scramble_83.jpg,imgJS/WMN_scramble_36.jpg,imgJS/WMN_scramble_56.jpg,imgJS/WMN_scramble_63.jpg,imgJS/WMN_scramble_77.jpg,imgJS/WMN_91.jpg,imgJS/WMN_scramble_84.jpg,imgJS/WMN_scramble_2.jpg,imgJS/WMN_scramble_15.jpg,imgJS/WMF_27.jpg,imgJS/WMN_scramble_60.jpg,imgJS/WMN_scramble_59.jpg,imgJS/WMN_scramble_3.jpg,imgJS/WMN_scramble_74.jpg,imgJS/WMN_scramble_76.jpg	999	999	rsvp_img_15	1	13	2	5	1	5	3	9	1	rsvp_flux	203	239675	0.0-203.0	27	14:13 26-5-2020	
27	2020-05-26 12:13:28	2020-05-26 12:39:35	user7	1	1	EMOREG_S1	2020-05-09 00:00:00	2021-05-10 00:00:00	EMOREG	667.8799999645	<div style="font-size:20px;"><p> Avez-vous vu au moins une femme? </p><p> <strong> Oui [O] / Non [N] </strong></p> </div>	999	78	rsvpAnswFem	1	13	2	5	1	5	3	9	1	html-keyboard-response	204	240345	0.0-204.0	27	14:13 26-5-2020	
27	2020-05-26 12:13:28	2020-05-26 12:39:35	user7	1	1	EMOREG_S1	2020-05-09 00:00:00	2021-05-10 00:00:00	EMOREG	999	999	999	999	fullscreenExp	999	999	999	999	999	999	999	999	999	fullscreen	205	240381	0.0-205.0	27	14:13 26-5-2020	
27	2020-05-26 12:13:28	2020-05-26 12:39:35	user7	1	1	EMOREG_S1	2020-05-09 00:00:00	2021-05-10 00:00:00	EMOREG	999	fixation_cross	999	999	fixation	1	14	2	3	1	5	1	9	0	html-keyboard-response	206	241385	0.0-206.0	27	14:13 26-5-2020	
27	2020-05-26 12:13:28	2020-05-26 12:39:35	user7	1	1	EMOREG_S1	2020-05-09 00:00:00	2021-05-10 00:00:00	EMOREG	999	imgJS/WMF_scramble_16.jpg,imgJS/WMF_scramble_13.jpg,imgJS/WMF_scramble_24.jpg,imgJS/WMF_scramble_16.jpg,imgJS/WMF_scramble_2.jpg,imgJS/WMF_22.jpg,imgJS/WMF_scramble_25.jpg,imgJS/WMF_scramble_21.jpg,imgJS/WMF_scramble_24.jpg,imgJS/WFF_35.jpg,imgJS/WMF_scramble_1.jpg,imgJS/WMF_scramble_27.jpg,imgJS/WMF_scramble_6.jpg,imgJS/WMF_scramble_16.jpg,imgJS/WMF_scramble_7.jpg	999	999	rsvp_img_15	1	14	2	3	1	5	1	9	0	rsvp_flux	207	242440	0.0-207.0	27	14:13 26-5-2020	
27	2020-05-26 12:13:28	2020-05-26 12:39:35	user7	1	1	EMOREG_S1	2020-05-09 00:00:00	2021-05-10 00:00:00	EMOREG	716.1850000266	<div style="font-size:20px;"><p> Avez-vous vu au moins une femme? </p><p> <strong> Oui [O] / Non [N] </strong></p> </div>	999	79	rsvpAnswFem	1	14	2	3	1	5	1	9	0	html-keyboard-response	208	243158	0.0-208.0	27	14:13 26-5-2020	
27	2020-05-26 12:13:28	2020-05-26 12:39:35	user7	1	1	EMOREG_S1	2020-05-09 00:00:00	2021-05-10 00:00:00	EMOREG	999	999	999	999	fullscreenExp	999	999	999	999	999	999	999	999	999	fullscreen	209	243192	0.0-209.0	27	14:13 26-5-2020	
27	2020-05-26 12:13:28	2020-05-26 12:39:35	user7	1	1	EMOREG_S1	2020-05-09 00:00:00	2021-05-10 00:00:00	EMOREG	999	fixation_cross	999	999	fixation	1	15	2	5	1	7	3	9	1	html-keyboard-response	210	244196	0.0-210.0	27	14:13 26-5-2020	
27	2020-05-26 12:13:28	2020-05-26 12:39:35	user7	1	1	EMOREG_S1	2020-05-09 00:00:00	2021-05-10 00:00:00	EMOREG	999	imgJS/WMN_scramble_87.jpg,imgJS/WMN_scramble_29.jpg,imgJS/WMN_scramble_35.jpg,imgJS/WMN_scramble_80.jpg,imgJS/WMN_scramble_4.jpg,imgJS/WMN_scramble_48.jpg,imgJS/WMN_scramble_39.jpg,imgJS/WMN_31.jpg,imgJS/WMN_scramble_1.jpg,imgJS/WMF_20.jpg,imgJS/WMN_scramble_76.jpg,imgJS/WMN_scramble_52.jpg,imgJS/WMN_scramble_78.jpg,imgJS/WMN_scramble_51.jpg,imgJS/WMN_scramble_90.jpg	999	999	rsvp_img_15	1	15	2	5	1	7	3	9	1	rsvp_flux	211	245249	0.0-211.0	27	14:13 26-5-2020	
27	2020-05-26 12:13:28	2020-05-26 12:39:35	user7	1	1	EMOREG_S1	2020-05-09 00:00:00	2021-05-10 00:00:00	EMOREG	1125.5599999567	<div style="font-size:20px;"><p> Avez-vous vu au moins une femme? </p><p> <strong> Oui [O] / Non [N] </strong></p> </div>	999	78	rsvpAnswFem	1	15	2	5	1	7	3	9	1	html-keyboard-response	212	246377	0.0-212.0	27	14:13 26-5-2020	
27	2020-05-26 12:13:28	2020-05-26 12:39:35	user7	1	1	EMOREG_S1	2020-05-09 00:00:00	2021-05-10 00:00:00	EMOREG	999	999	999	999	fullscreenExp	999	999	999	999	999	999	999	999	999	fullscreen	213	246409	0.0-213.0	27	14:13 26-5-2020	
27	2020-05-26 12:13:28	2020-05-26 12:39:35	user7	1	1	EMOREG_S1	2020-05-09 00:00:00	2021-05-10 00:00:00	EMOREG	999	fixation_cross	999	999	fixation	1	16	2	4	1	5	2	9	2	html-keyboard-response	214	247413	0.0-214.0	27	14:13 26-5-2020	
27	2020-05-26 12:13:28	2020-05-26 12:39:35	user7	1	1	EMOREG_S1	2020-05-09 00:00:00	2021-05-10 00:00:00	EMOREG	999	imgJS/WFN_scramble_7.jpg,imgJS/WFN_scramble_84.jpg,imgJS/WFN_scramble_35.jpg,imgJS/WFN_scramble_13.jpg,imgJS/WFN_scramble_19.jpg,imgJS/WFN_73.jpg,imgJS/WFN_scramble_58.jpg,imgJS/WFN_scramble_71.jpg,imgJS/WFN_scramble_45.jpg,imgJS/WFN_6.jpg,imgJS/WFN_scramble_82.jpg,imgJS/WFN_scramble_31.jpg,imgJS/WFN_scramble_62.jpg,imgJS/WFN_scramble_20.jpg,imgJS/WFN_scramble_48.jpg	999	999	rsvp_img_15	1	16	2	4	1	5	2	9	2	rsvp_flux	215	248466	0.0-215.0	27	14:13 26-5-2020	
27	2020-05-26 12:13:28	2020-05-26 12:39:35	user7	1	1	EMOREG_S1	2020-05-09 00:00:00	2021-05-10 00:00:00	EMOREG	591.93500003312	<div style="font-size:20px;"><p> Avez-vous vu au moins un homme? </p><p> <strong> Oui [O] / Non [N] </strong></p> </div>	999	78	rsvpAnswHom	1	16	2	4	1	5	2	9	2	html-keyboard-response	216	249060	0.0-216.0	27	14:13 26-5-2020	
27	2020-05-26 12:13:28	2020-05-26 12:39:35	user7	1	1	EMOREG_S1	2020-05-09 00:00:00	2021-05-10 00:00:00	EMOREG	999	999	999	999	fullscreenExp	999	999	999	999	999	999	999	999	999	fullscreen	217	249093	0.0-217.0	27	14:13 26-5-2020	
27	2020-05-26 12:13:28	2020-05-26 12:39:35	user7	1	1	EMOREG_S1	2020-05-09 00:00:00	2021-05-10 00:00:00	EMOREG	999	fixation_cross	999	999	fixation	1	17	2	5	1	8	3	12	0	html-keyboard-response	218	250097	0.0-218.0	27	14:13 26-5-2020	
27	2020-05-26 12:13:28	2020-05-26 12:39:35	user7	1	1	EMOREG_S1	2020-05-09 00:00:00	2021-05-10 00:00:00	EMOREG	999	imgJS/WMN_scramble_37.jpg,imgJS/WMN_scramble_60.jpg,imgJS/WMN_scramble_21.jpg,imgJS/WMN_scramble_89.jpg,imgJS/WMN_scramble_49.jpg,imgJS/WMN_scramble_22.jpg,imgJS/WMN_scramble_75.jpg,imgJS/WMN_scramble_89.jpg,imgJS/WMN_18.jpg,imgJS/WMN_scramble_25.jpg,imgJS/WMN_scramble_65.jpg,imgJS/WMN_scramble_4.jpg,imgJS/WFF_32.jpg,imgJS/WMN_scramble_76.jpg,imgJS/WMN_scramble_63.jpg	999	999	rsvp_img_15	1	17	2	5	1	8	3	12	0	rsvp_flux	219	251151	0.0-219.0	27	14:13 26-5-2020	
27	2020-05-26 12:13:28	2020-05-26 12:39:35	user7	1	1	EMOREG_S1	2020-05-09 00:00:00	2021-05-10 00:00:00	EMOREG	762.2449999908	<div style="font-size:20px;"><p> Avez-vous vu au moins une femme? </p><p> <strong> Oui [O] / Non [N] </strong></p> </div>	999	79	rsvpAnswFem	1	17	2	5	1	8	3	12	0	html-keyboard-response	220	251917	0.0-220.0	27	14:13 26-5-2020	
27	2020-05-26 12:13:28	2020-05-26 12:39:35	user7	1	1	EMOREG_S1	2020-05-09 00:00:00	2021-05-10 00:00:00	EMOREG	999	999	999	999	fullscreenExp	999	999	999	999	999	999	999	999	999	fullscreen	221	251950	0.0-221.0	27	14:13 26-5-2020	
27	2020-05-26 12:13:28	2020-05-26 12:39:35	user7	1	1	EMOREG_S1	2020-05-09 00:00:00	2021-05-10 00:00:00	EMOREG	999	fixation_cross	999	999	fixation	1	18	2	4	1	7	2	9	2	html-keyboard-response	222	252954	0.0-222.0	27	14:13 26-5-2020	
27	2020-05-26 12:13:28	2020-05-26 12:39:35	user7	1	1	EMOREG_S1	2020-05-09 00:00:00	2021-05-10 00:00:00	EMOREG	999	imgJS/WFN_scramble_6.jpg,imgJS/WFN_scramble_61.jpg,imgJS/WFN_scramble_50.jpg,imgJS/WFN_scramble_3.jpg,imgJS/WFN_scramble_30.jpg,imgJS/WFN_scramble_58.jpg,imgJS/WFN_scramble_39.jpg,imgJS/WFN_39.jpg,imgJS/WFN_scramble_46.jpg,imgJS/WFN_83.jpg,imgJS/WFN_scramble_12.jpg,imgJS/WFN_scramble_19.jpg,imgJS/WFN_scramble_52.jpg,imgJS/WFN_scramble_8.jpg,imgJS/WFN_scramble_21.jpg	999	999	rsvp_img_15	1	18	2	4	1	7	2	9	2	rsvp_flux	223	254007	0.0-223.0	27	14:13 26-5-2020	
27	2020-05-26 12:13:28	2020-05-26 12:39:35	user7	1	1	EMOREG_S1	2020-05-09 00:00:00	2021-05-10 00:00:00	EMOREG	659.11999996752	<div style="font-size:20px;"><p> Avez-vous vu au moins un homme? </p><p> <strong> Oui [O] / Non [N] </strong></p> </div>	999	78	rsvpAnswHom	1	18	2	4	1	7	2	9	2	html-keyboard-response	224	254669	0.0-224.0	27	14:13 26-5-2020	
27	2020-05-26 12:13:28	2020-05-26 12:39:35	user7	1	1	EMOREG_S1	2020-05-09 00:00:00	2021-05-10 00:00:00	EMOREG	999	999	999	999	fullscreenExp	999	999	999	999	999	999	999	999	999	fullscreen	225	254709	0.0-225.0	27	14:13 26-5-2020	
27	2020-05-26 12:13:28	2020-05-26 12:39:35	user7	1	1	EMOREG_S1	2020-05-09 00:00:00	2021-05-10 00:00:00	EMOREG	999	fixation_cross	999	999	fixation	1	19	2	6	1	6	2	10	1	html-keyboard-response	226	255714	0.0-226.0	27	14:13 26-5-2020	
27	2020-05-26 12:13:28	2020-05-26 12:39:35	user7	1	1	EMOREG_S1	2020-05-09 00:00:00	2021-05-10 00:00:00	EMOREG	999	imgJS/WFN_scramble_64.jpg,imgJS/WFN_scramble_22.jpg,imgJS/WFN_scramble_19.jpg,imgJS/WFN_scramble_48.jpg,imgJS/WFN_scramble_2.jpg,imgJS/WFN_scramble_10.jpg,imgJS/WFN_6.jpg,imgJS/WFN_scramble_2.jpg,imgJS/WFN_scramble_82.jpg,imgJS/WFN_scramble_40.jpg,imgJS/WMF_28.jpg,imgJS/WFN_scramble_80.jpg,imgJS/WFN_scramble_81.jpg,imgJS/WFN_scramble_71.jpg,imgJS/WFN_scramble_78.jpg	999	999	rsvp_img_15	1	19	2	6	1	6	2	10	1	rsvp_flux	227	256769	0.0-227.0	27	14:13 26-5-2020	
27	2020-05-26 12:13:28	2020-05-26 12:39:35	user7	1	1	EMOREG_S1	2020-05-09 00:00:00	2021-05-10 00:00:00	EMOREG	1167.054999969	<div style="font-size:20px;"><p> Avez-vous vu au moins un homme? </p><p> <strong> Oui [O] / Non [N] </strong></p> </div>	999	79	rsvpAnswHom	1	19	2	6	1	6	2	10	1	html-keyboard-response	228	257938	0.0-228.0	27	14:13 26-5-2020	
27	2020-05-26 12:13:28	2020-05-26 12:39:35	user7	1	1	EMOREG_S1	2020-05-09 00:00:00	2021-05-10 00:00:00	EMOREG	999	999	999	999	fullscreenExp	999	999	999	999	999	999	999	999	999	fullscreen	229	257972	0.0-229.0	27	14:13 26-5-2020	
27	2020-05-26 12:13:28	2020-05-26 12:39:35	user7	1	1	EMOREG_S1	2020-05-09 00:00:00	2021-05-10 00:00:00	EMOREG	999	fixation_cross	999	999	fixation	1	20	2	5	1	8	3	12	1	html-keyboard-response	230	258976	0.0-230.0	27	14:13 26-5-2020	
